[
	{
		"rt": 3622.399999992922,
		"stimulus": "In this task, you will hear an instruction and click on the corresponding picture on the screen with your mouse. Press space to start the experiment.",
		"key_press": 32,
		"trial_type": "html-keyboard-response",
		"trial_index": 0,
		"time_elapsed": 3624,
		"internal_node_id": "0.0-0.0"
	},
	{
		"trial_type": "webgazer-calibrate",
		"trial_index": 1,
		"time_elapsed": 44585,
		"internal_node_id": "0.0-1.0"
	},
	{
		"picTL": "pictures/milkshake_big.jpg",
		"picTR": "pictures/cat_small.jpg",
		"picBL": "pictures/baseballglove_small.jpg",
		"picBR": "pictures/turtle_big.jpg",
		"rt": 4057.4150001630187,
		"audio_stim": "sounds/turtle_big.wav",
		"clicked_on": "BR",
		"gaze_data": "[{\"x\":516,\"y\":482,\"t\":56545.99000001326},{\"x\":527,\"y\":649,\"t\":27.57999999448657},{\"x\":527,\"y\":649,\"t\":52.045000018551946},{\"x\":599,\"y\":665,\"t\":86.55000012367964},{\"x\":603,\"y\":376,\"t\":111.84999998658895},{\"x\":589,\"y\":133,\"t\":140.56500000879169},{\"x\":434,\"y\":47,\"t\":167.18000010587275},{\"x\":646,\"y\":84,\"t\":195.4550000373274},{\"x\":647,\"y\":55,\"t\":219.65500013902783},{\"x\":434,\"y\":58,\"t\":249.16500016115606},{\"x\":429,\"y\":142,\"t\":275.84500005468726},{\"x\":539,\"y\":67,\"t\":306.98500014841557},{\"x\":445,\"y\":-13,\"t\":331.840000115335},{\"x\":700,\"y\":250,\"t\":360.92999996617436},{\"x\":530,\"y\":91,\"t\":385.5250000488013},{\"x\":699,\"y\":272,\"t\":414.01499998755753},{\"x\":722,\"y\":226,\"t\":438.65000014193356},{\"x\":620,\"y\":250,\"t\":467.8350000176579},{\"x\":714,\"y\":181,\"t\":493.58000000938773},{\"x\":826,\"y\":276,\"t\":526.5399999916553},{\"x\":708,\"y\":262,\"t\":551.729999948293},{\"x\":825,\"y\":317,\"t\":580.8050001505762},{\"x\":824,\"y\":302,\"t\":606.0999999754131},{\"x\":931,\"y\":553,\"t\":635.3500001132488},{\"x\":956,\"y\":326,\"t\":661.4350001327693},{\"x\":1113,\"y\":437,\"t\":692.0700001064688},{\"x\":1153,\"y\":251,\"t\":716.7549999430776},{\"x\":1196,\"y\":182,\"t\":745.5700000282377},{\"x\":1124,\"y\":57,\"t\":771.3550000917166},{\"x\":1141,\"y\":296,\"t\":800.2500000875443},{\"x\":1154,\"y\":59,\"t\":826.230000006035},{\"x\":1130,\"y\":311,\"t\":854.6250001527369},{\"x\":971,\"y\":8,\"t\":879.6900000888854},{\"x\":515,\"y\":576,\"t\":911.0950001049787},{\"x\":256,\"y\":439,\"t\":936.2749999854714},{\"x\":206,\"y\":426,\"t\":967.6749999634922},{\"x\":274,\"y\":535,\"t\":995.2000000048429},{\"x\":433,\"y\":375,\"t\":1028.080000076443},{\"x\":665,\"y\":452,\"t\":1055.170000065118},{\"x\":1364,\"y\":636,\"t\":1091.7200001422316},{\"x\":1203,\"y\":618,\"t\":1118.1600000709295},{\"x\":1113,\"y\":675,\"t\":1154.4950001407415},{\"x\":1028,\"y\":839,\"t\":1182.5250000692904},{\"x\":684,\"y\":453,\"t\":1224.3749999906868},{\"x\":816,\"y\":606,\"t\":1251.4150000642985},{\"x\":727,\"y\":400,\"t\":1291.9950000941753},{\"x\":782,\"y\":338,\"t\":1319.8750000447035},{\"x\":832,\"y\":487,\"t\":1358.9550000615418},{\"x\":761,\"y\":588,\"t\":1391.1300001200289},{\"x\":825,\"y\":525,\"t\":1460.0450000725687},{\"x\":786,\"y\":592,\"t\":1485.9299999661744},{\"x\":779,\"y\":416,\"t\":1524.860000004992},{\"x\":746,\"y\":344,\"t\":1550.230000168085},{\"x\":888,\"y\":378,\"t\":1588.2550000678748},{\"x\":708,\"y\":276,\"t\":1616.0349999554455},{\"x\":688,\"y\":380,\"t\":1656.0100000351667},{\"x\":719,\"y\":238,\"t\":1684.1550001408905},{\"x\":886,\"y\":388,\"t\":1742.8999999538064},{\"x\":920,\"y\":372,\"t\":1819.5899999700487},{\"x\":808,\"y\":373,\"t\":1856.870000017807},{\"x\":908,\"y\":419,\"t\":1882.4150001164526},{\"x\":748,\"y\":444,\"t\":1913.5549999773502},{\"x\":785,\"y\":385,\"t\":1939.005000051111},{\"x\":618,\"y\":297,\"t\":1974.0150000434369},{\"x\":707,\"y\":402,\"t\":1999.440000159666},{\"x\":636,\"y\":220,\"t\":2057.8300000634044},{\"x\":754,\"y\":334,\"t\":2084.030000027269},{\"x\":785,\"y\":201,\"t\":2113.2950000464916},{\"x\":737,\"y\":291,\"t\":2137.8600001335144},{\"x\":658,\"y\":345,\"t\":2167.2150001395494},{\"x\":826,\"y\":395,\"t\":2193.57500015758},{\"x\":964,\"y\":535,\"t\":2224.2600000463426},{\"x\":943,\"y\":450,\"t\":2249.650000128895},{\"x\":685,\"y\":412,\"t\":2279.9400000367314},{\"x\":730,\"y\":434,\"t\":2305.885000154376},{\"x\":644,\"y\":562,\"t\":2335.3750000242144},{\"x\":762,\"y\":440,\"t\":2361.585000064224},{\"x\":790,\"y\":407,\"t\":2390.43499995023},{\"x\":714,\"y\":415,\"t\":2415.5850000679493},{\"x\":874,\"y\":580,\"t\":2444.249999942258},{\"x\":843,\"y\":408,\"t\":2469.02499999851},{\"x\":745,\"y\":343,\"t\":2498.420000076294},{\"x\":737,\"y\":376,\"t\":2522.995000006631},{\"x\":758,\"y\":397,\"t\":2551.3049999717623},{\"x\":627,\"y\":349,\"t\":2576.6050000675023},{\"x\":542,\"y\":571,\"t\":2605.2600000984967},{\"x\":584,\"y\":569,\"t\":2630.9100000653416},{\"x\":384,\"y\":649,\"t\":2662.1700001414865},{\"x\":620,\"y\":773,\"t\":2689.669999992475},{\"x\":262,\"y\":699,\"t\":2718.5899999458343},{\"x\":500,\"y\":789,\"t\":2744.670000160113},{\"x\":448,\"y\":635,\"t\":2775.9450001176447},{\"x\":476,\"y\":474,\"t\":2802.6300000492483},{\"x\":743,\"y\":531,\"t\":2835.9100001398474},{\"x\":847,\"y\":506,\"t\":2865.6250000931323},{\"x\":920,\"y\":366,\"t\":2897.0000001136214},{\"x\":1118,\"y\":686,\"t\":2922.9300001170486},{\"x\":1008,\"y\":371,\"t\":2953.1400001142174},{\"x\":955,\"y\":342,\"t\":2982.255000155419},{\"x\":1100,\"y\":445,\"t\":3012.2299999929965},{\"x\":981,\"y\":275,\"t\":3037.935000145808},{\"x\":1014,\"y\":357,\"t\":3066.365000093356},{\"x\":931,\"y\":298,\"t\":3093.9750000834465},{\"x\":931,\"y\":298,\"t\":3127.040000166744},{\"x\":1147,\"y\":382,\"t\":3154.945000074804},{\"x\":1211,\"y\":375,\"t\":3184.5250001642853},{\"x\":1221,\"y\":513,\"t\":3210.1400000974536},{\"x\":1159,\"y\":519,\"t\":3238.194999983534},{\"x\":970,\"y\":530,\"t\":3266.045000171289},{\"x\":1008,\"y\":438,\"t\":3304.664999945089},{\"x\":1025,\"y\":334,\"t\":3331.785000162199},{\"x\":1241,\"y\":440,\"t\":3369.399999966845},{\"x\":1262,\"y\":360,\"t\":3397.140000015497},{\"x\":1191,\"y\":380,\"t\":3434.2549999710172},{\"x\":1323,\"y\":538,\"t\":3461.3449999596924},{\"x\":1116,\"y\":418,\"t\":3498.0550000909716},{\"x\":1248,\"y\":649,\"t\":3524.710000026971},{\"x\":1276,\"y\":548,\"t\":3571.470000082627},{\"x\":1281,\"y\":516,\"t\":3599.045000039041},{\"x\":1489,\"y\":428,\"t\":3636.4100000355393},{\"x\":1154,\"y\":344,\"t\":3663.395000156015},{\"x\":1278,\"y\":707,\"t\":3701.6799999400973},{\"x\":1213,\"y\":758,\"t\":3728.12999994494},{\"x\":1381,\"y\":821,\"t\":3767.024999950081},{\"x\":1291,\"y\":873,\"t\":3794.9449999723583},{\"x\":1351,\"y\":610,\"t\":3830.755000002682},{\"x\":1351,\"y\":610,\"t\":3856.690000044182},{\"x\":1199,\"y\":647,\"t\":3902.9250000603497},{\"x\":1300,\"y\":765,\"t\":3929.7550001647323},{\"x\":1331,\"y\":466,\"t\":3964.7750000003725},{\"x\":1188,\"y\":451,\"t\":3991.840000031516},{\"x\":1193,\"y\":532,\"t\":4023.47999997437},{\"x\":1196,\"y\":402,\"t\":4049.705000128597}]",
		"x0": 10,
		"y0": 10,
		"x4": 851,
		"y4": 425,
		"w": 819,
		"h": 409,
		"trialID": "test32",
		"list": "l1",
		"trial_type": "vwp-webgazer",
		"cond": "no_contrast",
		"target_pic": "turtle_big.jpg",
		"target_contrast": "cat_small.jpg",
		"big_filler": "milkshake_big.jpg",
		"small_filler": "baseballglove_small.jpg",
		"phase": "test-vwp",
		"trial_index": 2,
		"time_elapsed": 48672,
		"internal_node_id": "0.0-2.0-0.0"
	},
	{
		"picTL": "pictures/hat_small.jpg",
		"picTR": "pictures/hat_big.jpg",
		"picBL": "pictures/wreath_small.jpg",
		"picBR": "pictures/helmet_big.jpg",
		"rt": 3257.929999846965,
		"audio_stim": "sounds/hat_big.wav",
		"clicked_on": "TR",
		"gaze_data": "[{\"x\":1226,\"y\":587,\"t\":60631.44999998622},{\"x\":1140,\"y\":616,\"t\":30.529999872669578},{\"x\":1446,\"y\":740,\"t\":56.30000005476177},{\"x\":1490,\"y\":656,\"t\":83.10499996878207},{\"x\":1331,\"y\":613,\"t\":114.17499999515712},{\"x\":1378,\"y\":642,\"t\":140.24499990046024},{\"x\":1420,\"y\":716,\"t\":167.71499998867512},{\"x\":1237,\"y\":631,\"t\":199.9500000383705},{\"x\":1274,\"y\":565,\"t\":227.22500003874302},{\"x\":1165,\"y\":406,\"t\":253.73999984003603},{\"x\":1341,\"y\":656,\"t\":296.18499986827374},{\"x\":1373,\"y\":766,\"t\":324.1799999959767},{\"x\":1243,\"y\":747,\"t\":351.04999993927777},{\"x\":1393,\"y\":807,\"t\":382.54999998025596},{\"x\":1441,\"y\":789,\"t\":409.28500005975366},{\"x\":1441,\"y\":789,\"t\":436.0199999064207},{\"x\":1284,\"y\":683,\"t\":474.29999988526106},{\"x\":1301,\"y\":684,\"t\":501.7999999690801},{\"x\":1276,\"y\":619,\"t\":528.6999999079853},{\"x\":1147,\"y\":556,\"t\":566.785000031814},{\"x\":1356,\"y\":639,\"t\":593.91999989748},{\"x\":1427,\"y\":722,\"t\":619.9199999682605},{\"x\":988,\"y\":514,\"t\":658.399999840185},{\"x\":880,\"y\":446,\"t\":686.1999998800457},{\"x\":963,\"y\":515,\"t\":713.9500000048429},{\"x\":921,\"y\":470,\"t\":752.064999891445},{\"x\":753,\"y\":484,\"t\":781.2349998857826},{\"x\":615,\"y\":356,\"t\":810.7449999079108},{\"x\":615,\"y\":356,\"t\":843.2599999941885},{\"x\":568,\"y\":378,\"t\":870.3449999447912},{\"x\":503,\"y\":321,\"t\":899.9999999068677},{\"x\":695,\"y\":371,\"t\":939.8049998562783},{\"x\":593,\"y\":290,\"t\":967.5650000572205},{\"x\":644,\"y\":400,\"t\":997.3849998787045},{\"x\":554,\"y\":319,\"t\":1037.4600000213832},{\"x\":448,\"y\":196,\"t\":1065.4949999880046},{\"x\":784,\"y\":448,\"t\":1092.2250000294298},{\"x\":476,\"y\":116,\"t\":1130.4599998984486},{\"x\":676,\"y\":310,\"t\":1159.2749999836087},{\"x\":662,\"y\":540,\"t\":1185.8649998903275},{\"x\":495,\"y\":259,\"t\":1226.8499999772757},{\"x\":508,\"y\":113,\"t\":1256.2299999408424},{\"x\":583,\"y\":233,\"t\":1290.074999909848},{\"x\":757,\"y\":452,\"t\":1327.0849999971688},{\"x\":787,\"y\":610,\"t\":1352.7249998878688},{\"x\":748,\"y\":530,\"t\":1379.04499983415},{\"x\":248,\"y\":287,\"t\":1422.7950000204146},{\"x\":85,\"y\":454,\"t\":1449.6249998919666},{\"x\":82,\"y\":471,\"t\":1475.1999999862164},{\"x\":91,\"y\":548,\"t\":1506.7849999759346},{\"x\":351,\"y\":266,\"t\":1532.744999974966},{\"x\":593,\"y\":340,\"t\":1558.784999884665},{\"x\":728,\"y\":461,\"t\":1599.1449998691678},{\"x\":759,\"y\":458,\"t\":1625.0499999150634},{\"x\":842,\"y\":674,\"t\":1651.704999851063},{\"x\":787,\"y\":511,\"t\":1681.7850000225008},{\"x\":769,\"y\":611,\"t\":1708.7550000287592},{\"x\":828,\"y\":656,\"t\":1733.5399999283254},{\"x\":864,\"y\":690,\"t\":1763.319999910891},{\"x\":759,\"y\":562,\"t\":1790.0799999479204},{\"x\":756,\"y\":437,\"t\":1818.0749998427927},{\"x\":920,\"y\":300,\"t\":1854.374999878928},{\"x\":863,\"y\":191,\"t\":1880.1649999804795},{\"x\":833,\"y\":423,\"t\":1905.439999885857},{\"x\":870,\"y\":219,\"t\":1939.0549999661744},{\"x\":750,\"y\":234,\"t\":1964.655000017956},{\"x\":745,\"y\":116,\"t\":1991.2399998866022},{\"x\":857,\"y\":411,\"t\":2020.3499998897314},{\"x\":871,\"y\":190,\"t\":2046.3300000410527},{\"x\":786,\"y\":230,\"t\":2072.9600000195205},{\"x\":845,\"y\":257,\"t\":2107.289999956265},{\"x\":844,\"y\":256,\"t\":2133.2900000270456},{\"x\":778,\"y\":172,\"t\":2158.674999838695},{\"x\":720,\"y\":147,\"t\":2191.259999992326},{\"x\":856,\"y\":178,\"t\":2217.844999860972},{\"x\":1017,\"y\":222,\"t\":2244.070000015199},{\"x\":1055,\"y\":276,\"t\":2274.9999999068677},{\"x\":1055,\"y\":276,\"t\":2300.5649999249727},{\"x\":1112,\"y\":308,\"t\":2325.840000063181},{\"x\":1206,\"y\":413,\"t\":2355.9699999168515},{\"x\":1040,\"y\":276,\"t\":2382.6150000095367},{\"x\":1253,\"y\":483,\"t\":2408.9949999470264},{\"x\":1262,\"y\":506,\"t\":2439.3499998841435},{\"x\":1109,\"y\":238,\"t\":2464.699999894947},{\"x\":1178,\"y\":340,\"t\":2490.585000021383},{\"x\":929,\"y\":278,\"t\":2520.0950000435114},{\"x\":557,\"y\":313,\"t\":2546.8500000424683},{\"x\":841,\"y\":365,\"t\":2571.134999860078},{\"x\":847,\"y\":489,\"t\":2618.305000010878},{\"x\":558,\"y\":273,\"t\":2659.1600000392646},{\"x\":664,\"y\":408,\"t\":2690.6200000084937},{\"x\":422,\"y\":26,\"t\":2727.974999928847},{\"x\":1242,\"y\":440,\"t\":2756.339999847114},{\"x\":1415,\"y\":433,\"t\":2782.4049999471754},{\"x\":957,\"y\":192,\"t\":2825.144999893382},{\"x\":1033,\"y\":73,\"t\":2853.2849999610335},{\"x\":929,\"y\":305,\"t\":2880.4150000214577},{\"x\":1130,\"y\":318,\"t\":2919.914999976754},{\"x\":1146,\"y\":241,\"t\":2948.355000000447},{\"x\":1130,\"y\":195,\"t\":2975.4200000315905},{\"x\":1106,\"y\":284,\"t\":3012.499999953434},{\"x\":1106,\"y\":284,\"t\":3038.6799999978393},{\"x\":1117,\"y\":347,\"t\":3063.7499999720603},{\"x\":1257,\"y\":323,\"t\":3112.0449998416007},{\"x\":1181,\"y\":338,\"t\":3137.170000001788},{\"x\":1135,\"y\":163,\"t\":3162.1099999174476},{\"x\":1163,\"y\":463,\"t\":3193.394999951124},{\"x\":1117,\"y\":397,\"t\":3221.570000052452},{\"x\":1151,\"y\":316,\"t\":3248.5700000543147}]",
		"x0": 10,
		"y0": 10,
		"x4": 851,
		"y4": 425,
		"w": 819,
		"h": 409,
		"trialID": "test5",
		"list": "l1",
		"trial_type": "vwp-webgazer",
		"cond": "contrast",
		"target_pic": "hat_big.jpg",
		"target_contrast": "hat_small.jpg",
		"big_filler": "helmet_big.jpg",
		"small_filler": "wreath_small.jpg",
		"phase": "test-vwp",
		"trial_index": 3,
		"time_elapsed": 51958,
		"internal_node_id": "0.0-2.0-0.1"
	},
	{
		"picTL": "pictures/fan_small.jpg",
		"picTR": "pictures/lock_big.jpg",
		"picBL": "pictures/hookah_big.jpg",
		"picBR": "pictures/flag_small.jpg",
		"rt": 4722.689999965951,
		"audio_stim": "sounds/fan_small.wav",
		"clicked_on": "TL",
		"gaze_data": "[{\"x\":973,\"y\":252,\"t\":63917.26000001654},{\"x\":1062,\"y\":1,\"t\":30.129999853670597},{\"x\":919,\"y\":91,\"t\":55.659999838098884},{\"x\":1216,\"y\":116,\"t\":80.97999985329807},{\"x\":1130,\"y\":181,\"t\":105.67999980412424},{\"x\":1121,\"y\":65,\"t\":153.11499987728894},{\"x\":1031,\"y\":193,\"t\":178.4399999305606},{\"x\":1135,\"y\":269,\"t\":204.2399998754263},{\"x\":1135,\"y\":49,\"t\":229.7799999359995},{\"x\":1180,\"y\":105,\"t\":260.0249999668449},{\"x\":1389,\"y\":44,\"t\":285.6449999380857},{\"x\":1264,\"y\":94,\"t\":310.52999990060925},{\"x\":1233,\"y\":157,\"t\":336.8849998805672},{\"x\":1218,\"y\":121,\"t\":367.5400000065565},{\"x\":1218,\"y\":217,\"t\":395.784999942407},{\"x\":1035,\"y\":16,\"t\":423.26999991200864},{\"x\":1127,\"y\":159,\"t\":448.4349999111146},{\"x\":1027,\"y\":144,\"t\":486.4250000100583},{\"x\":993,\"y\":337,\"t\":515.140000032261},{\"x\":723,\"y\":290,\"t\":542.9849999491125},{\"x\":966,\"y\":363,\"t\":572.0499998424202},{\"x\":904,\"y\":386,\"t\":612.3799998313189},{\"x\":842,\"y\":382,\"t\":639.7899999283254},{\"x\":701,\"y\":383,\"t\":666.0700000356883},{\"x\":593,\"y\":379,\"t\":692.670000018552},{\"x\":757,\"y\":422,\"t\":730.6499998085201},{\"x\":796,\"y\":278,\"t\":759.1599998995662},{\"x\":797,\"y\":465,\"t\":785.8249999117106},{\"x\":855,\"y\":358,\"t\":810.9450000338256},{\"x\":691,\"y\":423,\"t\":849.6550000272691},{\"x\":764,\"y\":292,\"t\":876.8649999983609},{\"x\":560,\"y\":368,\"t\":903.5300000105053},{\"x\":768,\"y\":452,\"t\":930.7649999391288},{\"x\":576,\"y\":314,\"t\":969.7349998168647},{\"x\":671,\"y\":494,\"t\":996.8699999153614},{\"x\":184,\"y\":525,\"t\":1024.4950000196695},{\"x\":50,\"y\":570,\"t\":1064.1550000291318},{\"x\":528,\"y\":368,\"t\":1103.374999947846},{\"x\":343,\"y\":531,\"t\":1131.13999995403},{\"x\":578,\"y\":531,\"t\":1156.8249999545515},{\"x\":599,\"y\":654,\"t\":1181.7299998365343},{\"x\":770,\"y\":493,\"t\":1229.3999998364598},{\"x\":900,\"y\":526,\"t\":1260.6899999082088},{\"x\":863,\"y\":500,\"t\":1287.5549998134375},{\"x\":893,\"y\":413,\"t\":1313.0049998871982},{\"x\":915,\"y\":606,\"t\":1343.604999827221},{\"x\":804,\"y\":609,\"t\":1368.2649999391288},{\"x\":771,\"y\":575,\"t\":1394.6599999908358},{\"x\":557,\"y\":673,\"t\":1421.379999956116},{\"x\":504,\"y\":417,\"t\":1450.2799999900162},{\"x\":635,\"y\":395,\"t\":1475.9099998045713},{\"x\":496,\"y\":439,\"t\":1500.969999935478},{\"x\":625,\"y\":269,\"t\":1527.2999999579042},{\"x\":698,\"y\":348,\"t\":1556.815000018105},{\"x\":644,\"y\":343,\"t\":1580.9949999675155},{\"x\":558,\"y\":270,\"t\":1605.849999934435},{\"x\":577,\"y\":290,\"t\":1631.8549998104572},{\"x\":664,\"y\":366,\"t\":1661.9400000199676},{\"x\":587,\"y\":170,\"t\":1687.7399999648333},{\"x\":501,\"y\":274,\"t\":1724.354999838397},{\"x\":455,\"y\":54,\"t\":1749.959999928251},{\"x\":485,\"y\":55,\"t\":1780.4749999195337},{\"x\":500,\"y\":160,\"t\":1806.4699999522418},{\"x\":272,\"y\":99,\"t\":1832.0199998561293},{\"x\":551,\"y\":116,\"t\":1857.6199999079108},{\"x\":279,\"y\":140,\"t\":1888.1899998523295},{\"x\":450,\"y\":219,\"t\":1913.304999936372},{\"x\":624,\"y\":396,\"t\":1938.4849998168647},{\"x\":633,\"y\":331,\"t\":1963.5149999521673},{\"x\":514,\"y\":398,\"t\":1995.1400000136346},{\"x\":474,\"y\":363,\"t\":2020.659999921918},{\"x\":423,\"y\":195,\"t\":2045.3399999532849},{\"x\":476,\"y\":138,\"t\":2071.7499998863786},{\"x\":493,\"y\":298,\"t\":2103.0949999112636},{\"x\":614,\"y\":282,\"t\":2128.614999819547},{\"x\":658,\"y\":356,\"t\":2154.6000000089407},{\"x\":666,\"y\":493,\"t\":2179.749999893829},{\"x\":616,\"y\":529,\"t\":2208.5400000214577},{\"x\":739,\"y\":580,\"t\":2233.534999890253},{\"x\":776,\"y\":541,\"t\":2258.674999931827},{\"x\":776,\"y\":541,\"t\":2282.894999952987},{\"x\":846,\"y\":553,\"t\":2313.6549999471754},{\"x\":842,\"y\":471,\"t\":2338.9549998100847},{\"x\":995,\"y\":482,\"t\":2364.649999886751},{\"x\":1239,\"y\":725,\"t\":2391.1249998491257},{\"x\":969,\"y\":491,\"t\":2424.0999999456108},{\"x\":969,\"y\":491,\"t\":2448.6049998085946},{\"x\":1165,\"y\":588,\"t\":2473.939999938011},{\"x\":1102,\"y\":584,\"t\":2499.3049998302013},{\"x\":1074,\"y\":650,\"t\":2531.7100000102073},{\"x\":928,\"y\":526,\"t\":2557.574999984354},{\"x\":937,\"y\":563,\"t\":2584.1349998954684},{\"x\":1071,\"y\":701,\"t\":2608.7299999780953},{\"x\":1107,\"y\":731,\"t\":2638.7549999635667},{\"x\":1099,\"y\":551,\"t\":2662.6249998807907},{\"x\":1099,\"y\":551,\"t\":2687.1399998199195},{\"x\":1109,\"y\":515,\"t\":2712.0299998205155},{\"x\":986,\"y\":523,\"t\":2740.974999964237},{\"x\":1087,\"y\":625,\"t\":2766.1349999252707},{\"x\":1120,\"y\":731,\"t\":2792.424999875948},{\"x\":1146,\"y\":727,\"t\":2816.954999929294},{\"x\":1120,\"y\":770,\"t\":2847.889999859035},{\"x\":758,\"y\":581,\"t\":2872.2999999299645},{\"x\":197,\"y\":675,\"t\":2897.794999880716},{\"x\":601,\"y\":971,\"t\":2923.7049999646842},{\"x\":531,\"y\":735,\"t\":2954.829999944195},{\"x\":368,\"y\":736,\"t\":2979.479999979958},{\"x\":687,\"y\":711,\"t\":3005.699999863282},{\"x\":1133,\"y\":628,\"t\":3030.7199999224395},{\"x\":1267,\"y\":497,\"t\":3061.3599999342114},{\"x\":1196,\"y\":-1,\"t\":3087.3999998439103},{\"x\":1081,\"y\":336,\"t\":3111.4550000056624},{\"x\":1150,\"y\":44,\"t\":3138.3249999489635},{\"x\":1086,\"y\":241,\"t\":3173.67499996908},{\"x\":1109,\"y\":0,\"t\":3203.3100000116974},{\"x\":1041,\"y\":112,\"t\":3229.2849998921156},{\"x\":1061,\"y\":31,\"t\":3257.7149998396635},{\"x\":978,\"y\":71,\"t\":3288.524999981746},{\"x\":1202,\"y\":211,\"t\":3313.279999885708},{\"x\":1049,\"y\":184,\"t\":3338.4649998042732},{\"x\":1257,\"y\":254,\"t\":3363.5399998165667},{\"x\":849,\"y\":124,\"t\":3392.3149998299778},{\"x\":992,\"y\":346,\"t\":3417.5249999389052},{\"x\":992,\"y\":346,\"t\":3441.7499999981374},{\"x\":1137,\"y\":384,\"t\":3466.4699998684227},{\"x\":1347,\"y\":559,\"t\":3495.989999966696},{\"x\":1377,\"y\":660,\"t\":3521.76499995403},{\"x\":1377,\"y\":660,\"t\":3546.129999915138},{\"x\":1334,\"y\":511,\"t\":3571.849999949336},{\"x\":1387,\"y\":475,\"t\":3606.334999902174},{\"x\":1400,\"y\":424,\"t\":3634.424999821931},{\"x\":1336,\"y\":504,\"t\":3660.2299998048693},{\"x\":1013,\"y\":673,\"t\":3686.2249998375773},{\"x\":1013,\"y\":673,\"t\":3716.5149999782443},{\"x\":723,\"y\":265,\"t\":3741.639999905601},{\"x\":675,\"y\":438,\"t\":3766.364999813959},{\"x\":430,\"y\":293,\"t\":3791.9899998232722},{\"x\":522,\"y\":153,\"t\":3821.8000000342727},{\"x\":522,\"y\":150,\"t\":3846.3749999646097},{\"x\":595,\"y\":155,\"t\":3872.1300000324845},{\"x\":595,\"y\":174,\"t\":3897.3899998236448},{\"x\":590,\"y\":155,\"t\":3928.0199999921024},{\"x\":689,\"y\":251,\"t\":3954.1599999647588},{\"x\":689,\"y\":251,\"t\":3978.6099998746067},{\"x\":696,\"y\":217,\"t\":4004.2999999132007},{\"x\":668,\"y\":129,\"t\":4043.3749998919666},{\"x\":605,\"y\":142,\"t\":4073.6699998378754},{\"x\":727,\"y\":158,\"t\":4098.765000002459},{\"x\":685,\"y\":303,\"t\":4123.83499997668},{\"x\":705,\"y\":152,\"t\":4154.660000000149},{\"x\":864,\"y\":381,\"t\":4180.944999912754},{\"x\":662,\"y\":217,\"t\":4206.4699998591095},{\"x\":776,\"y\":336,\"t\":4231.599999824539},{\"x\":614,\"y\":111,\"t\":4271.1899999994785},{\"x\":433,\"y\":112,\"t\":4299.589999951422},{\"x\":482,\"y\":158,\"t\":4325.66999993287},{\"x\":403,\"y\":139,\"t\":4353.219999931753},{\"x\":460,\"y\":233,\"t\":4391.884999815375},{\"x\":712,\"y\":218,\"t\":4417.369999922812},{\"x\":814,\"y\":262,\"t\":4446.729999966919},{\"x\":770,\"y\":292,\"t\":4473.049999913201},{\"x\":501,\"y\":276,\"t\":4529.719999991357},{\"x\":580,\"y\":442,\"t\":4556.429999880493},{\"x\":579,\"y\":256,\"t\":4582.569999853149},{\"x\":684,\"y\":446,\"t\":4606.5399998333305},{\"x\":601,\"y\":243,\"t\":4637.63999985531},{\"x\":696,\"y\":445,\"t\":4663.02499989979},{\"x\":663,\"y\":391,\"t\":4688.884999835864},{\"x\":638,\"y\":440,\"t\":4714.11499986425}]",
		"x0": 10,
		"y0": 10,
		"x4": 851,
		"y4": 425,
		"w": 819,
		"h": 409,
		"trialID": "test38",
		"list": "l1",
		"trial_type": "vwp-webgazer",
		"cond": "no_contrast",
		"target_pic": "fan_small.jpg",
		"target_contrast": "lock_big.jpg",
		"big_filler": "hookah_big.jpg",
		"small_filler": "flag_small.jpg",
		"phase": "test-vwp",
		"trial_index": 4,
		"time_elapsed": 56709,
		"internal_node_id": "0.0-2.0-0.2"
	},
	{
		"picTL": "pictures/kayak_big.jpg",
		"picTR": "pictures/accordion_big.jpg",
		"picBL": "pictures/microscope_small.jpg",
		"picBR": "pictures/bird_small.jpg",
		"rt": 4116.804999997839,
		"audio_stim": "sounds/kayak_big.wav",
		"clicked_on": "TL",
		"gaze_data": "[{\"x\":441,\"y\":110,\"t\":68667.14999987744},{\"x\":497,\"y\":150,\"t\":28.66500010713935},{\"x\":295,\"y\":27,\"t\":54.43000001832843},{\"x\":363,\"y\":77,\"t\":79.41500004380941},{\"x\":365,\"y\":62,\"t\":104.9600001424551},{\"x\":390,\"y\":92,\"t\":131.06000004336238},{\"x\":457,\"y\":97,\"t\":173.97000011987984},{\"x\":505,\"y\":234,\"t\":198.9299999549985},{\"x\":403,\"y\":103,\"t\":225.92999995686114},{\"x\":572,\"y\":256,\"t\":253.38999996893108},{\"x\":513,\"y\":285,\"t\":280.1250000484288},{\"x\":639,\"y\":312,\"t\":317.74500012397766},{\"x\":620,\"y\":279,\"t\":344.9600001331419},{\"x\":618,\"y\":413,\"t\":372.04000004567206},{\"x\":638,\"y\":389,\"t\":397.46000012382865},{\"x\":478,\"y\":344,\"t\":423.11000009067357},{\"x\":702,\"y\":395,\"t\":462.8800000064075},{\"x\":450,\"y\":187,\"t\":490.0599999818951},{\"x\":486,\"y\":251,\"t\":516.8700001668185},{\"x\":711,\"y\":386,\"t\":544.5749999489635},{\"x\":724,\"y\":449,\"t\":571.2200000416487},{\"x\":797,\"y\":522,\"t\":632.9550000373274},{\"x\":682,\"y\":447,\"t\":661.6700000595301},{\"x\":773,\"y\":340,\"t\":688.1550000980496},{\"x\":693,\"y\":398,\"t\":716.2250000983477},{\"x\":671,\"y\":309,\"t\":742.7100001368672},{\"x\":897,\"y\":392,\"t\":784.5850000157952},{\"x\":880,\"y\":462,\"t\":813.4650001302361},{\"x\":835,\"y\":514,\"t\":840.169999981299},{\"x\":782,\"y\":483,\"t\":866.3200000301003},{\"x\":782,\"y\":483,\"t\":904.1649999562651},{\"x\":491,\"y\":289,\"t\":943.1300000287592},{\"x\":759,\"y\":397,\"t\":967.5249999854714},{\"x\":592,\"y\":413,\"t\":992.6500001456589},{\"x\":642,\"y\":359,\"t\":1017.8050000686198},{\"x\":924,\"y\":461,\"t\":1043.969999998808},{\"x\":818,\"y\":472,\"t\":1080.7600000407547},{\"x\":689,\"y\":340,\"t\":1106.015000026673},{\"x\":763,\"y\":445,\"t\":1131.7950000520796},{\"x\":1005,\"y\":522,\"t\":1157.3499999940395},{\"x\":995,\"y\":619,\"t\":1182.8100001439452},{\"x\":819,\"y\":364,\"t\":1215.9949999768287},{\"x\":647,\"y\":266,\"t\":1242.9400000255555},{\"x\":858,\"y\":552,\"t\":1269.4700001738966},{\"x\":858,\"y\":552,\"t\":1294.8050000704825},{\"x\":766,\"y\":495,\"t\":1322.0200000796467},{\"x\":818,\"y\":407,\"t\":1353.4450000151992},{\"x\":805,\"y\":366,\"t\":1379.2350001167506},{\"x\":675,\"y\":349,\"t\":1405.5600001011044},{\"x\":675,\"y\":349,\"t\":1429.9850000534207},{\"x\":736,\"y\":509,\"t\":1455.6050000246614},{\"x\":673,\"y\":539,\"t\":1506.5550000872463},{\"x\":672,\"y\":426,\"t\":1533.9250001125038},{\"x\":672,\"y\":426,\"t\":1558.9100001379848},{\"x\":771,\"y\":384,\"t\":1584.315000101924},{\"x\":708,\"y\":302,\"t\":1610.8049999456853},{\"x\":751,\"y\":414,\"t\":1642.2500000335276},{\"x\":639,\"y\":307,\"t\":1667.325000045821},{\"x\":640,\"y\":315,\"t\":1692.7450001239777},{\"x\":841,\"y\":484,\"t\":1717.8700000513345},{\"x\":927,\"y\":562,\"t\":1746.1600000970066},{\"x\":982,\"y\":416,\"t\":1777.0450001116842},{\"x\":695,\"y\":343,\"t\":1802.3449999745935},{\"x\":514,\"y\":238,\"t\":1826.7800000030547},{\"x\":696,\"y\":273,\"t\":1852.7800000738353},{\"x\":605,\"y\":315,\"t\":1877.8800000436604},{\"x\":739,\"y\":334,\"t\":1909.87000009045},{\"x\":428,\"y\":244,\"t\":1935.950000071898},{\"x\":709,\"y\":355,\"t\":1961.335000116378},{\"x\":587,\"y\":267,\"t\":1986.995000159368},{\"x\":755,\"y\":366,\"t\":2012.9550001583993},{\"x\":741,\"y\":422,\"t\":2060.2949999738485},{\"x\":915,\"y\":452,\"t\":2091.0300000105053},{\"x\":500,\"y\":249,\"t\":2116.069999989122},{\"x\":731,\"y\":371,\"t\":2141.6200001258403},{\"x\":407,\"y\":107,\"t\":2168.9500000793487},{\"x\":667,\"y\":368,\"t\":2205.9400000143796},{\"x\":667,\"y\":368,\"t\":2235.4200000409037},{\"x\":770,\"y\":421,\"t\":2261.5350000560284},{\"x\":631,\"y\":438,\"t\":2289.240000071004},{\"x\":688,\"y\":340,\"t\":2320.6100000534207},{\"x\":779,\"y\":435,\"t\":2352.9150001704693},{\"x\":741,\"y\":450,\"t\":2378.1100001651794},{\"x\":731,\"y\":508,\"t\":2404.2850001715124},{\"x\":618,\"y\":441,\"t\":2429.6699999831617},{\"x\":769,\"y\":502,\"t\":2455.3950000554323},{\"x\":1014,\"y\":435,\"t\":2486.4300000481308},{\"x\":1299,\"y\":532,\"t\":2511.1249999608845},{\"x\":1332,\"y\":486,\"t\":2537.30500000529},{\"x\":1321,\"y\":497,\"t\":2562.4400000087917},{\"x\":1350,\"y\":484,\"t\":2598.519999999553},{\"x\":1204,\"y\":436,\"t\":2632.8400000929832},{\"x\":1176,\"y\":438,\"t\":2657.5400000438094},{\"x\":1070,\"y\":336,\"t\":2683.0599999520928},{\"x\":1163,\"y\":297,\"t\":2708.4050001576543},{\"x\":1163,\"y\":297,\"t\":2732.259999960661},{\"x\":1158,\"y\":318,\"t\":2763.1650001276284},{\"x\":1184,\"y\":362,\"t\":2788.954999996349},{\"x\":1186,\"y\":421,\"t\":2814.59500011988},{\"x\":1367,\"y\":683,\"t\":2840.1750000193715},{\"x\":1415,\"y\":238,\"t\":2865.2950001414865},{\"x\":1376,\"y\":277,\"t\":2895.2750000171363},{\"x\":1199,\"y\":148,\"t\":2921.749999979511},{\"x\":1467,\"y\":302,\"t\":2948.185000102967},{\"x\":1426,\"y\":331,\"t\":2972.885000053793},{\"x\":1381,\"y\":307,\"t\":2997.9749999474734},{\"x\":1314,\"y\":256,\"t\":3028.4750000573695},{\"x\":1233,\"y\":341,\"t\":3054.380000103265},{\"x\":1188,\"y\":152,\"t\":3080.9800000861287},{\"x\":1262,\"y\":288,\"t\":3106.6000000573695},{\"x\":1229,\"y\":114,\"t\":3134.770000120625},{\"x\":1256,\"y\":300,\"t\":3172.1700001507998},{\"x\":1011,\"y\":74,\"t\":3197.8949999902397},{\"x\":1205,\"y\":173,\"t\":3223.590000066906},{\"x\":584,\"y\":68,\"t\":3248.6900000367314},{\"x\":679,\"y\":627,\"t\":3274.330000160262},{\"x\":481,\"y\":582,\"t\":3306.760000064969},{\"x\":567,\"y\":446,\"t\":3333.2850001752377},{\"x\":597,\"y\":677,\"t\":3358.1149999517947},{\"x\":485,\"y\":575,\"t\":3383.769999956712},{\"x\":705,\"y\":535,\"t\":3409.459999995306},{\"x\":552,\"y\":261,\"t\":3439.21500002034},{\"x\":487,\"y\":279,\"t\":3466.359999962151},{\"x\":571,\"y\":331,\"t\":3492.3849999904633},{\"x\":552,\"y\":246,\"t\":3517.794999992475},{\"x\":609,\"y\":224,\"t\":3544.370000017807},{\"x\":661,\"y\":441,\"t\":3586.460000136867},{\"x\":465,\"y\":232,\"t\":3613.9700000640005},{\"x\":621,\"y\":381,\"t\":3640.360000077635},{\"x\":456,\"y\":155,\"t\":3667.1500001102686},{\"x\":482,\"y\":194,\"t\":3693.6449999921024},{\"x\":293,\"y\":716,\"t\":3731.4500000793487},{\"x\":245,\"y\":713,\"t\":3756.16000010632},{\"x\":160,\"y\":420,\"t\":3782.344999955967},{\"x\":287,\"y\":530,\"t\":3820.5099999904633},{\"x\":510,\"y\":464,\"t\":3845.3250001184642},{\"x\":612,\"y\":390,\"t\":3875.5300000775605},{\"x\":506,\"y\":496,\"t\":3900.0099999830127},{\"x\":568,\"y\":478,\"t\":3924.7100001666695},{\"x\":552,\"y\":582,\"t\":3949.6999999973923},{\"x\":732,\"y\":506,\"t\":3975.9550001472235},{\"x\":594,\"y\":586,\"t\":4007.0400000549853},{\"x\":436,\"y\":516,\"t\":4032.2650000452995},{\"x\":536,\"y\":689,\"t\":4056.9150000810623},{\"x\":583,\"y\":534,\"t\":4081.8350000772625},{\"x\":583,\"y\":574,\"t\":4107.460000086576}]",
		"x0": 10,
		"y0": 10,
		"x4": 851,
		"y4": 425,
		"w": 819,
		"h": 409,
		"trialID": "test30",
		"list": "l1",
		"trial_type": "vwp-webgazer",
		"cond": "no_contrast",
		"target_pic": "kayak_big.jpg",
		"target_contrast": "bird_small.jpg",
		"big_filler": "accordion_big.jpg",
		"small_filler": "microscope_small.jpg",
		"phase": "test-vwp",
		"trial_index": 5,
		"time_elapsed": 60853,
		"internal_node_id": "0.0-2.0-0.3"
	},
	{
		"picTL": "pictures/pillow_small.jpg",
		"picTR": "pictures/shapestoy_big.jpg",
		"picBL": "pictures/tuxedo_big.jpg",
		"picBR": "pictures/cookie_small.jpg",
		"rt": 3749.115000013262,
		"audio_stim": "sounds/tuxedo_big.wav",
		"clicked_on": "BL",
		"gaze_data": "[{\"x\":528,\"y\":288,\"t\":72811.41499988735},{\"x\":330,\"y\":235,\"t\":28.9149999152869},{\"x\":549,\"y\":279,\"t\":54.57499995827675},{\"x\":521,\"y\":240,\"t\":82.01999985612929},{\"x\":555,\"y\":223,\"t\":107.23999980837107},{\"x\":428,\"y\":233,\"t\":132.61500000953674},{\"x\":579,\"y\":250,\"t\":158.76999986357987},{\"x\":436,\"y\":172,\"t\":203.87499989010394},{\"x\":510,\"y\":303,\"t\":229.79000001214445},{\"x\":355,\"y\":104,\"t\":257.0849999319762},{\"x\":477,\"y\":270,\"t\":282.96499978750944},{\"x\":375,\"y\":259,\"t\":309.15499990805984},{\"x\":413,\"y\":311,\"t\":335.75999992899597},{\"x\":376,\"y\":217,\"t\":368.82500001229346},{\"x\":521,\"y\":297,\"t\":395.88999981060624},{\"x\":454,\"y\":63,\"t\":421.2950000073761},{\"x\":608,\"y\":240,\"t\":446.9249998219311},{\"x\":528,\"y\":234,\"t\":475.69999983534217},{\"x\":660,\"y\":257,\"t\":503.919999813661},{\"x\":634,\"y\":371,\"t\":544.3649999797344},{\"x\":622,\"y\":370,\"t\":571.1699998937547},{\"x\":617,\"y\":261,\"t\":598.1149999424815},{\"x\":689,\"y\":324,\"t\":625.7799998857081},{\"x\":717,\"y\":320,\"t\":652.2249998524785},{\"x\":714,\"y\":159,\"t\":678.5199998412281},{\"x\":642,\"y\":369,\"t\":730.6199998129159},{\"x\":717,\"y\":290,\"t\":765.9199999179691},{\"x\":700,\"y\":337,\"t\":794.0249999519438},{\"x\":700,\"y\":337,\"t\":820.049999980256},{\"x\":633,\"y\":328,\"t\":847.8299998678267},{\"x\":752,\"y\":416,\"t\":875.654999865219},{\"x\":799,\"y\":442,\"t\":925.5649999249727},{\"x\":756,\"y\":387,\"t\":960.6249998323619},{\"x\":908,\"y\":420,\"t\":994.1799999214709},{\"x\":855,\"y\":370,\"t\":1029.9799998756498},{\"x\":706,\"y\":418,\"t\":1060.554999858141},{\"x\":883,\"y\":502,\"t\":1088.6999999638647},{\"x\":772,\"y\":370,\"t\":1129.6149999834597},{\"x\":757,\"y\":364,\"t\":1156.2899998389184},{\"x\":669,\"y\":255,\"t\":1183.3899999037385},{\"x\":729,\"y\":406,\"t\":1210.3899999056011},{\"x\":627,\"y\":281,\"t\":1236.314999870956},{\"x\":713,\"y\":369,\"t\":1274.5649998541921},{\"x\":628,\"y\":266,\"t\":1331.6649999469519},{\"x\":716,\"y\":340,\"t\":1378.9949999190867},{\"x\":716,\"y\":526,\"t\":1406.2749999575317},{\"x\":202,\"y\":397,\"t\":1432.5249998364598},{\"x\":-61,\"y\":210,\"t\":1458.359999815002},{\"x\":239,\"y\":311,\"t\":1483.3499998785555},{\"x\":427,\"y\":727,\"t\":1514.6399999503046},{\"x\":598,\"y\":533,\"t\":1539.8599999025464},{\"x\":628,\"y\":422,\"t\":1565.7749997917563},{\"x\":1005,\"y\":445,\"t\":1593.7149999663234},{\"x\":1005,\"y\":445,\"t\":1619.0199998673052},{\"x\":874,\"y\":670,\"t\":1644.154999870807},{\"x\":1125,\"y\":553,\"t\":1675.184999825433},{\"x\":1143,\"y\":575,\"t\":1701.2499999254942},{\"x\":893,\"y\":700,\"t\":1727.8549999464303},{\"x\":893,\"y\":700,\"t\":1751.979999942705},{\"x\":871,\"y\":713,\"t\":1777.219999814406},{\"x\":1113,\"y\":713,\"t\":1802.814999828115},{\"x\":1110,\"y\":722,\"t\":1835.3299999143928},{\"x\":1039,\"y\":748,\"t\":1861.6649999748915},{\"x\":1039,\"y\":748,\"t\":1885.594999883324},{\"x\":1191,\"y\":760,\"t\":1911.0449999570847},{\"x\":1171,\"y\":615,\"t\":1936.6399999707937},{\"x\":1034,\"y\":575,\"t\":1961.5999998059124},{\"x\":995,\"y\":604,\"t\":1995.0799997895956},{\"x\":995,\"y\":604,\"t\":2019.8649999219924},{\"x\":1132,\"y\":585,\"t\":2044.5599998347461},{\"x\":1265,\"y\":534,\"t\":2070.2349999919534},{\"x\":1117,\"y\":546,\"t\":2095.7049999851733},{\"x\":1332,\"y\":633,\"t\":2120.6449999008328},{\"x\":1336,\"y\":283,\"t\":2153.2999998889863},{\"x\":1189,\"y\":335,\"t\":2178.0649998690933},{\"x\":1410,\"y\":423,\"t\":2203.6249998491257},{\"x\":1143,\"y\":275,\"t\":2229.1049999184906},{\"x\":1142,\"y\":300,\"t\":2253.6049999762326},{\"x\":1181,\"y\":104,\"t\":2277.829999802634},{\"x\":1235,\"y\":238,\"t\":2308.9299998246133},{\"x\":1220,\"y\":384,\"t\":2334.749999921769},{\"x\":1102,\"y\":124,\"t\":2360.059999860823},{\"x\":1236,\"y\":269,\"t\":2384.0199999976903},{\"x\":1081,\"y\":170,\"t\":2410.2149999234825},{\"x\":588,\"y\":23,\"t\":2435.479999985546},{\"x\":651,\"y\":197,\"t\":2466.3249999284744},{\"x\":573,\"y\":155,\"t\":2491.694999858737},{\"x\":478,\"y\":140,\"t\":2516.1749999970198},{\"x\":621,\"y\":139,\"t\":2541.830000001937},{\"x\":451,\"y\":225,\"t\":2566.8649999424815},{\"x\":599,\"y\":214,\"t\":2592.1249999664724},{\"x\":568,\"y\":214,\"t\":2622.3249998874962},{\"x\":580,\"y\":184,\"t\":2647.974999854341},{\"x\":488,\"y\":143,\"t\":2672.67999984324},{\"x\":443,\"y\":191,\"t\":2698.629999998957},{\"x\":451,\"y\":185,\"t\":2722.8249998297542},{\"x\":546,\"y\":489,\"t\":2747.3749998025596},{\"x\":433,\"y\":491,\"t\":2778.184999944642},{\"x\":385,\"y\":397,\"t\":2803.6749998573214},{\"x\":334,\"y\":350,\"t\":2828.5850000102073},{\"x\":463,\"y\":416,\"t\":2857.354999985546},{\"x\":494,\"y\":516,\"t\":2881.549999816343},{\"x\":460,\"y\":507,\"t\":2906.5199999604374},{\"x\":338,\"y\":520,\"t\":2937.3449999839067},{\"x\":377,\"y\":582,\"t\":2962.074999930337},{\"x\":377,\"y\":582,\"t\":2985.9749998431653},{\"x\":290,\"y\":610,\"t\":3011.244999943301},{\"x\":336,\"y\":637,\"t\":3036.979999858886},{\"x\":303,\"y\":507,\"t\":3062.364999903366},{\"x\":480,\"y\":555,\"t\":3094.38499994576},{\"x\":467,\"y\":693,\"t\":3119.8399998247623},{\"x\":374,\"y\":636,\"t\":3144.9599999468774},{\"x\":364,\"y\":548,\"t\":3170.5449998844415},{\"x\":345,\"y\":537,\"t\":3196.669999975711},{\"x\":354,\"y\":476,\"t\":3221.259999787435},{\"x\":588,\"y\":692,\"t\":3259.8399999551475},{\"x\":561,\"y\":674,\"t\":3286.6699998266995},{\"x\":561,\"y\":674,\"t\":3311.3599999342114},{\"x\":518,\"y\":808,\"t\":3337.5149997882545},{\"x\":496,\"y\":666,\"t\":3363.9599999878556},{\"x\":334,\"y\":760,\"t\":3390.0549998506904},{\"x\":491,\"y\":684,\"t\":3441.45999988541},{\"x\":393,\"y\":455,\"t\":3472.8949998971075},{\"x\":396,\"y\":558,\"t\":3498.2549999840558},{\"x\":396,\"y\":558,\"t\":3523.229999933392},{\"x\":358,\"y\":544,\"t\":3548.274999950081},{\"x\":273,\"y\":407,\"t\":3572.9099998716265},{\"x\":383,\"y\":625,\"t\":3611.784999957308},{\"x\":428,\"y\":554,\"t\":3637.889999896288},{\"x\":602,\"y\":714,\"t\":3663.2799999788404},{\"x\":595,\"y\":714,\"t\":3689.364999998361},{\"x\":527,\"y\":742,\"t\":3713.624999858439},{\"x\":396,\"y\":558,\"t\":3739.1599998809397}]",
		"x0": 10,
		"y0": 10,
		"x4": 851,
		"y4": 425,
		"w": 819,
		"h": 409,
		"trialID": "test24",
		"list": "l1",
		"trial_type": "vwp-webgazer",
		"cond": "no_contrast",
		"target_pic": "tuxedo_big.jpg",
		"target_contrast": "cookie_small.jpg",
		"big_filler": "shapestoy_big.jpg",
		"small_filler": "pillow_small.jpg",
		"phase": "test-vwp",
		"trial_index": 6,
		"time_elapsed": 64629,
		"internal_node_id": "0.0-2.0-0.4"
	},
	{
		"picTL": "pictures/soap_big.jpg",
		"picTR": "pictures/pear_big.jpg",
		"picBL": "pictures/pear_small.jpg",
		"picBR": "pictures/cannoli_small.jpg",
		"rt": 3109.3050001654774,
		"audio_stim": "sounds/pear_big.wav",
		"clicked_on": "TR",
		"gaze_data": "[{\"x\":502,\"y\":669,\"t\":76587.64499984682},{\"x\":517,\"y\":486,\"t\":28.180000139400363},{\"x\":409,\"y\":604,\"t\":54.70500001683831},{\"x\":425,\"y\":545,\"t\":80.84000018425286},{\"x\":425,\"y\":545,\"t\":117.15500010177493},{\"x\":398,\"y\":646,\"t\":144.12500010803342},{\"x\":466,\"y\":627,\"t\":171.00000008940697},{\"x\":536,\"y\":452,\"t\":198.94000003114343},{\"x\":361,\"y\":468,\"t\":252.8350001666695},{\"x\":584,\"y\":527,\"t\":279.70500010997057},{\"x\":340,\"y\":454,\"t\":305.7650001719594},{\"x\":377,\"y\":530,\"t\":333.199999993667},{\"x\":613,\"y\":486,\"t\":360.6850001960993},{\"x\":490,\"y\":470,\"t\":387.5500001013279},{\"x\":408,\"y\":328,\"t\":414.9150000885129},{\"x\":642,\"y\":394,\"t\":455.9450000524521},{\"x\":625,\"y\":556,\"t\":484.73000014200807},{\"x\":576,\"y\":466,\"t\":510.78000012785196},{\"x\":630,\"y\":493,\"t\":536.5300001576543},{\"x\":558,\"y\":479,\"t\":562.5},{\"x\":698,\"y\":537,\"t\":589.6550000179559},{\"x\":746,\"y\":465,\"t\":616.7150000110269},{\"x\":760,\"y\":472,\"t\":657.9650000203401},{\"x\":791,\"y\":308,\"t\":685.6900001876056},{\"x\":791,\"y\":308,\"t\":710.505000082776},{\"x\":714,\"y\":322,\"t\":735.7900000642985},{\"x\":697,\"y\":413,\"t\":761.5400000941008},{\"x\":639,\"y\":462,\"t\":786.7400001268834},{\"x\":747,\"y\":599,\"t\":811.8300000205636},{\"x\":780,\"y\":424,\"t\":850.8900001179427},{\"x\":780,\"y\":424,\"t\":876.2450001668185},{\"x\":869,\"y\":495,\"t\":902.1300000604242},{\"x\":712,\"y\":334,\"t\":928.6299999803305},{\"x\":780,\"y\":330,\"t\":953.975000185892},{\"x\":647,\"y\":329,\"t\":978.9750000927597},{\"x\":755,\"y\":463,\"t\":1004.1350000537932},{\"x\":701,\"y\":367,\"t\":1035.680000204593},{\"x\":672,\"y\":292,\"t\":1061.6400002036244},{\"x\":796,\"y\":313,\"t\":1086.7250000592321},{\"x\":695,\"y\":369,\"t\":1112.8350000362843},{\"x\":695,\"y\":369,\"t\":1137.8099999856204},{\"x\":732,\"y\":292,\"t\":1163.7300001457334},{\"x\":823,\"y\":396,\"t\":1189.8500001989305},{\"x\":794,\"y\":627,\"t\":1221.665000077337},{\"x\":877,\"y\":588,\"t\":1247.0800001174212},{\"x\":830,\"y\":698,\"t\":1272.605000063777},{\"x\":793,\"y\":335,\"t\":1299.400000134483},{\"x\":617,\"y\":500,\"t\":1324.33500001207},{\"x\":663,\"y\":363,\"t\":1351.3750000856817},{\"x\":594,\"y\":530,\"t\":1375.8900000248104},{\"x\":641,\"y\":364,\"t\":1408.1300001125783},{\"x\":736,\"y\":339,\"t\":1446.2250000797212},{\"x\":639,\"y\":360,\"t\":1471.4200000744313},{\"x\":587,\"y\":344,\"t\":1496.0600000340492},{\"x\":453,\"y\":191,\"t\":1522.3199999891222},{\"x\":494,\"y\":98,\"t\":1546.8600001186132},{\"x\":453,\"y\":238,\"t\":1571.6600001323968},{\"x\":465,\"y\":274,\"t\":1602.245000191033},{\"x\":561,\"y\":273,\"t\":1626.9800001755357},{\"x\":499,\"y\":267,\"t\":1651.7800001893193},{\"x\":499,\"y\":267,\"t\":1676.5300000552088},{\"x\":601,\"y\":7,\"t\":1701.4000001363456},{\"x\":584,\"y\":180,\"t\":1727.320000063628},{\"x\":511,\"y\":234,\"t\":1752.565000206232},{\"x\":401,\"y\":194,\"t\":1784.250000026077},{\"x\":535,\"y\":224,\"t\":1808.940000133589},{\"x\":488,\"y\":173,\"t\":1834.9650001619011},{\"x\":582,\"y\":139,\"t\":1861.2850001081824},{\"x\":540,\"y\":160,\"t\":1886.8700000457466},{\"x\":505,\"y\":32,\"t\":1911.4100001752377},{\"x\":655,\"y\":295,\"t\":1936.7150000762194},{\"x\":982,\"y\":307,\"t\":1968.0250000674278},{\"x\":1205,\"y\":298,\"t\":1993.3949999976903},{\"x\":1181,\"y\":153,\"t\":2018.930000020191},{\"x\":1405,\"y\":392,\"t\":2044.5600000675768},{\"x\":1049,\"y\":103,\"t\":2068.720000097528},{\"x\":1323,\"y\":312,\"t\":2094.550000037998},{\"x\":1211,\"y\":276,\"t\":2119.4649999961257},{\"x\":1220,\"y\":290,\"t\":2152.0400000736117},{\"x\":1025,\"y\":161,\"t\":2176.445000106469},{\"x\":1275,\"y\":331,\"t\":2201.710000168532},{\"x\":1075,\"y\":93,\"t\":2227.375000016764},{\"x\":1184,\"y\":313,\"t\":2252.955000149086},{\"x\":1008,\"y\":35,\"t\":2277.8249999973923},{\"x\":1122,\"y\":266,\"t\":2302.360000088811},{\"x\":1098,\"y\":-74,\"t\":2343.1950001977384},{\"x\":1240,\"y\":272,\"t\":2373.5200001392514},{\"x\":1063,\"y\":17,\"t\":2399.794999975711},{\"x\":1252,\"y\":279,\"t\":2425.7750001270324},{\"x\":1109,\"y\":64,\"t\":2451.640000101179},{\"x\":1169,\"y\":286,\"t\":2476.1650001164526},{\"x\":1033,\"y\":35,\"t\":2501.860000193119},{\"x\":1225,\"y\":323,\"t\":2534.135000081733},{\"x\":1117,\"y\":167,\"t\":2559.5150000881404},{\"x\":1165,\"y\":280,\"t\":2585.305000189692},{\"x\":1133,\"y\":377,\"t\":2609.9249999970198},{\"x\":1157,\"y\":338,\"t\":2635.2350001689047},{\"x\":1082,\"y\":114,\"t\":2662.195000099018},{\"x\":1190,\"y\":291,\"t\":2688.3150001522154},{\"x\":958,\"y\":261,\"t\":2728.385000023991},{\"x\":1087,\"y\":302,\"t\":2755.6450001429766},{\"x\":885,\"y\":354,\"t\":2782.080000033602},{\"x\":937,\"y\":376,\"t\":2822.8850001469254},{\"x\":1052,\"y\":233,\"t\":2852.6600000914186},{\"x\":1084,\"y\":144,\"t\":2877.640000078827},{\"x\":1134,\"y\":178,\"t\":2902.720000129193},{\"x\":1035,\"y\":188,\"t\":2944.3750001955777},{\"x\":1084,\"y\":191,\"t\":2969.7350000496954},{\"x\":937,\"y\":470,\"t\":2995.145000051707},{\"x\":258,\"y\":473,\"t\":3021.520000183955},{\"x\":249,\"y\":415,\"t\":3047.5950001273304},{\"x\":382,\"y\":386,\"t\":3073.5700000077486},{\"x\":566,\"y\":729,\"t\":3099.5200001634657}]",
		"x0": 10,
		"y0": 10,
		"x4": 851,
		"y4": 425,
		"w": 819,
		"h": 409,
		"trialID": "test9",
		"list": "l1",
		"trial_type": "vwp-webgazer",
		"cond": "contrast",
		"target_pic": "pear_big.jpg",
		"target_contrast": "pear_small.jpg",
		"big_filler": "soap_big.jpg",
		"small_filler": "cannoli_small.jpg",
		"phase": "test-vwp",
		"trial_index": 7,
		"time_elapsed": 67766,
		"internal_node_id": "0.0-2.0-0.5"
	},
	{
		"picTL": "pictures/veggieplatter_big.jpg",
		"picTR": "pictures/cat_small.jpg",
		"picBL": "pictures/cat_big.jpg",
		"picBR": "pictures/recliner_small.jpg",
		"rt": 3770.3099998179823,
		"audio_stim": "sounds/cat_small.wav",
		"clicked_on": "TR",
		"gaze_data": "[{\"x\":1256,\"y\":159,\"t\":79723.34999986924},{\"x\":1321,\"y\":350,\"t\":29.37999996356666},{\"x\":1213,\"y\":518,\"t\":54.87499991431832},{\"x\":1131,\"y\":572,\"t\":80.94999985769391},{\"x\":1353,\"y\":408,\"t\":106.36499989777803},{\"x\":1195,\"y\":652,\"t\":131.64499984122813},{\"x\":1120,\"y\":388,\"t\":158.2199998665601},{\"x\":1198,\"y\":557,\"t\":183.66499990224838},{\"x\":1118,\"y\":416,\"t\":207.6399999205023},{\"x\":1350,\"y\":309,\"t\":254.52999980188906},{\"x\":1031,\"y\":248,\"t\":281.819999916479},{\"x\":1267,\"y\":392,\"t\":306.2199999112636},{\"x\":996,\"y\":253,\"t\":332.9499999526888},{\"x\":1237,\"y\":342,\"t\":359.2949998565018},{\"x\":1116,\"y\":229,\"t\":385.14499994926155},{\"x\":1236,\"y\":254,\"t\":410.474999807775},{\"x\":1084,\"y\":97,\"t\":436.479999916628},{\"x\":1088,\"y\":493,\"t\":476.92999988794327},{\"x\":1001,\"y\":120,\"t\":504.1049998253584},{\"x\":1071,\"y\":224,\"t\":530.7349998038262},{\"x\":905,\"y\":287,\"t\":557.8449999447912},{\"x\":769,\"y\":401,\"t\":584.5649999100715},{\"x\":920,\"y\":538,\"t\":609.6599998418242},{\"x\":1195,\"y\":129,\"t\":635.7149998657405},{\"x\":824,\"y\":355,\"t\":661.5999999921769},{\"x\":881,\"y\":431,\"t\":703.0650000087917},{\"x\":782,\"y\":250,\"t\":730.7149998378009},{\"x\":551,\"y\":401,\"t\":757.8399998601526},{\"x\":706,\"y\":404,\"t\":784.6049999352545},{\"x\":595,\"y\":400,\"t\":810.9249998815358},{\"x\":695,\"y\":360,\"t\":837.3199999332428},{\"x\":745,\"y\":378,\"t\":865.6150000169873},{\"x\":825,\"y\":456,\"t\":892.0299999881536},{\"x\":764,\"y\":426,\"t\":932.1800000034273},{\"x\":725,\"y\":359,\"t\":958.8499998208135},{\"x\":698,\"y\":369,\"t\":996.7300000134856},{\"x\":629,\"y\":388,\"t\":1023.5299998894334},{\"x\":778,\"y\":429,\"t\":1049.9050000216812},{\"x\":680,\"y\":369,\"t\":1075.0249999109656},{\"x\":875,\"y\":544,\"t\":1099.6799999848008},{\"x\":808,\"y\":606,\"t\":1126.929999794811},{\"x\":750,\"y\":538,\"t\":1166.884999955073},{\"x\":834,\"y\":517,\"t\":1192.5150000024587},{\"x\":567,\"y\":539,\"t\":1218.0199997965246},{\"x\":516,\"y\":187,\"t\":1244.0599999390543},{\"x\":516,\"y\":187,\"t\":1268.1149998679757},{\"x\":795,\"y\":195,\"t\":1293.199999956414},{\"x\":877,\"y\":361,\"t\":1318.2899998500943},{\"x\":877,\"y\":361,\"t\":1342.899999814108},{\"x\":642,\"y\":637,\"t\":1375.779999885708},{\"x\":665,\"y\":289,\"t\":1400.6449999287724},{\"x\":477,\"y\":475,\"t\":1426.3799998443574},{\"x\":543,\"y\":361,\"t\":1452.7499999385327},{\"x\":495,\"y\":522,\"t\":1479.300000006333},{\"x\":590,\"y\":544,\"t\":1504.0299999527633},{\"x\":298,\"y\":444,\"t\":1529.9099998082966},{\"x\":545,\"y\":585,\"t\":1555.5149998981506},{\"x\":232,\"y\":254,\"t\":1587.8449999727309},{\"x\":491,\"y\":309,\"t\":1614.3000000156462},{\"x\":501,\"y\":445,\"t\":1638.6449998244643},{\"x\":572,\"y\":396,\"t\":1664.9449998512864},{\"x\":354,\"y\":559,\"t\":1690.3450000099838},{\"x\":574,\"y\":108,\"t\":1716.1699999123812},{\"x\":733,\"y\":258,\"t\":1741.3249998353422},{\"x\":733,\"y\":258,\"t\":1765.7749999780208},{\"x\":616,\"y\":337,\"t\":1807.9249998554587},{\"x\":753,\"y\":399,\"t\":1838.0350000225008},{\"x\":676,\"y\":405,\"t\":1863.4349999483675},{\"x\":724,\"y\":177,\"t\":1889.0299999620765},{\"x\":874,\"y\":196,\"t\":1915.0099998805672},{\"x\":982,\"y\":241,\"t\":1939.9800000246614},{\"x\":799,\"y\":379,\"t\":1965.7749999314547},{\"x\":963,\"y\":310,\"t\":1991.4949999656528},{\"x\":753,\"y\":151,\"t\":2027.6450000237674},{\"x\":1034,\"y\":192,\"t\":2053.654999937862},{\"x\":1090,\"y\":43,\"t\":2079.4499998446554},{\"x\":1012,\"y\":218,\"t\":2105.144999921322},{\"x\":1177,\"y\":105,\"t\":2132.704999996349},{\"x\":837,\"y\":99,\"t\":2158.9449997991323},{\"x\":887,\"y\":183,\"t\":2186.8199999444187},{\"x\":766,\"y\":486,\"t\":2213.9899998437613},{\"x\":443,\"y\":201,\"t\":2247.6199998054653},{\"x\":522,\"y\":191,\"t\":2272.879999829456},{\"x\":647,\"y\":170,\"t\":2311.134999850765},{\"x\":472,\"y\":160,\"t\":2336.634999839589},{\"x\":542,\"y\":116,\"t\":2361.6249999031425},{\"x\":439,\"y\":8,\"t\":2387.014999985695},{\"x\":562,\"y\":103,\"t\":2413.054999895394},{\"x\":516,\"y\":89,\"t\":2437.8949999809265},{\"x\":486,\"y\":76,\"t\":2468.959999969229},{\"x\":493,\"y\":42,\"t\":2494.1849999595433},{\"x\":515,\"y\":101,\"t\":2520.0300000142306},{\"x\":498,\"y\":-68,\"t\":2546.129999915138},{\"x\":498,\"y\":-68,\"t\":2570.7900000270456},{\"x\":469,\"y\":105,\"t\":2596.949999919161},{\"x\":514,\"y\":108,\"t\":2621.8999999109656},{\"x\":552,\"y\":-22,\"t\":2647.3499999847263},{\"x\":541,\"y\":61,\"t\":2680.784999858588},{\"x\":541,\"y\":61,\"t\":2705.104999942705},{\"x\":1165,\"y\":-100,\"t\":2732.175000011921},{\"x\":1249,\"y\":268,\"t\":2757.2949999012053},{\"x\":1162,\"y\":159,\"t\":2784.789999946952},{\"x\":1152,\"y\":245,\"t\":2813.3299998007715},{\"x\":1207,\"y\":195,\"t\":2838.24499999173},{\"x\":1106,\"y\":191,\"t\":2865.029999986291},{\"x\":1056,\"y\":233,\"t\":2897.9249999392778},{\"x\":1352,\"y\":384,\"t\":2923.5049998387694},{\"x\":1287,\"y\":264,\"t\":2951.5449998434633},{\"x\":1283,\"y\":328,\"t\":2978.6449999082834},{\"x\":1230,\"y\":152,\"t\":3004.474999848753},{\"x\":1316,\"y\":436,\"t\":3032.0999999530613},{\"x\":1172,\"y\":166,\"t\":3059.1599999461323},{\"x\":1148,\"y\":116,\"t\":3085.1449999026954},{\"x\":1341,\"y\":365,\"t\":3125.0799999106675},{\"x\":1099,\"y\":92,\"t\":3152.089999988675},{\"x\":1194,\"y\":114,\"t\":3179.1049998719245},{\"x\":1211,\"y\":253,\"t\":3205.755000002682},{\"x\":995,\"y\":15,\"t\":3232.4549998156726},{\"x\":1245,\"y\":490,\"t\":3259.709999896586},{\"x\":1177,\"y\":272,\"t\":3285.939999856055},{\"x\":1146,\"y\":110,\"t\":3312.8949999809265},{\"x\":1350,\"y\":304,\"t\":3351.8449999392033},{\"x\":936,\"y\":384,\"t\":3377.379999961704},{\"x\":1256,\"y\":330,\"t\":3401.884999824688},{\"x\":961,\"y\":336,\"t\":3427.5350000243634},{\"x\":1247,\"y\":188,\"t\":3453.459999989718},{\"x\":907,\"y\":333,\"t\":3479.319999925792},{\"x\":1265,\"y\":255,\"t\":3503.5549998283386},{\"x\":913,\"y\":438,\"t\":3538.4349999949336},{\"x\":1238,\"y\":294,\"t\":3579.6999998856336},{\"x\":1113,\"y\":239,\"t\":3605.8849999681115},{\"x\":1307,\"y\":177,\"t\":3632.404999807477},{\"x\":1063,\"y\":247,\"t\":3658.2899999339134},{\"x\":1287,\"y\":166,\"t\":3684.2199999373406},{\"x\":1048,\"y\":142,\"t\":3708.729999838397},{\"x\":1287,\"y\":142,\"t\":3733.574999962002},{\"x\":1148,\"y\":215,\"t\":3759.489999851212}]",
		"x0": 10,
		"y0": 10,
		"x4": 851,
		"y4": 425,
		"w": 819,
		"h": 409,
		"trialID": "test12",
		"list": "l1",
		"trial_type": "vwp-webgazer",
		"cond": "contrast",
		"target_pic": "cat_small.jpg",
		"target_contrast": "cat_big.jpg",
		"big_filler": "veggieplatter_big.jpg",
		"small_filler": "recliner_small.jpg",
		"phase": "test-vwp",
		"trial_index": 8,
		"time_elapsed": 71562,
		"internal_node_id": "0.0-2.0-0.6"
	},
	{
		"picTL": "pictures/tennisball_small.jpg",
		"picTR": "pictures/pickle_small.jpg",
		"picBL": "pictures/pickle_big.jpg",
		"picBR": "pictures/stapler_big.jpg",
		"rt": 3525.635000085458,
		"audio_stim": "sounds/pickle_big.wav",
		"clicked_on": "BL",
		"gaze_data": "[{\"x\":1328,\"y\":201,\"t\":83520.5399999395},{\"x\":1218,\"y\":172,\"t\":28.97000010125339},{\"x\":1242,\"y\":178,\"t\":54.84500015154481},{\"x\":1244,\"y\":154,\"t\":80.46999992802739},{\"x\":1186,\"y\":176,\"t\":106.37499997392297},{\"x\":1142,\"y\":150,\"t\":132.68000003881752},{\"x\":1246,\"y\":311,\"t\":158.37999992072582},{\"x\":1190,\"y\":344,\"t\":186.48499995470047},{\"x\":1197,\"y\":298,\"t\":212.66499999910593},{\"x\":1144,\"y\":214,\"t\":238.0099999718368},{\"x\":1273,\"y\":117,\"t\":296.1049999576062},{\"x\":1123,\"y\":35,\"t\":323.79000005312264},{\"x\":1194,\"y\":220,\"t\":351.17499995976686},{\"x\":1130,\"y\":101,\"t\":378.37000004947186},{\"x\":996,\"y\":213,\"t\":406.38000005856156},{\"x\":1048,\"y\":180,\"t\":432.6100000180304},{\"x\":791,\"y\":412,\"t\":460.7299999333918},{\"x\":792,\"y\":508,\"t\":487.17500013299286},{\"x\":881,\"y\":562,\"t\":513.7750001158565},{\"x\":819,\"y\":175,\"t\":555.8700000401586},{\"x\":847,\"y\":423,\"t\":583.2200001459569},{\"x\":847,\"y\":423,\"t\":609.0899999253452},{\"x\":720,\"y\":395,\"t\":635.6250001117587},{\"x\":836,\"y\":362,\"t\":661.6450001019984},{\"x\":824,\"y\":223,\"t\":688.9049999881536},{\"x\":618,\"y\":229,\"t\":716.3500001188368},{\"x\":687,\"y\":299,\"t\":741.9100000988692},{\"x\":825,\"y\":325,\"t\":767.9999999236315},{\"x\":807,\"y\":429,\"t\":820.0850000139326},{\"x\":759,\"y\":372,\"t\":853.1599999405444},{\"x\":766,\"y\":364,\"t\":880.6249999906868},{\"x\":727,\"y\":469,\"t\":908.1650001462549},{\"x\":693,\"y\":251,\"t\":934.7749999724329},{\"x\":742,\"y\":362,\"t\":960.8849999494851},{\"x\":693,\"y\":188,\"t\":988.4550001006573},{\"x\":727,\"y\":259,\"t\":1015.2400000952184},{\"x\":730,\"y\":240,\"t\":1042.325000045821},{\"x\":891,\"y\":417,\"t\":1083.3499999716878},{\"x\":891,\"y\":417,\"t\":1107.7900000382215},{\"x\":802,\"y\":482,\"t\":1133.7000001221895},{\"x\":790,\"y\":415,\"t\":1160.3950001299381},{\"x\":818,\"y\":365,\"t\":1186.214999994263},{\"x\":926,\"y\":493,\"t\":1211.3700001500547},{\"x\":718,\"y\":477,\"t\":1237.4350000172853},{\"x\":836,\"y\":525,\"t\":1262.6799999270588},{\"x\":808,\"y\":383,\"t\":1288.135000038892},{\"x\":714,\"y\":372,\"t\":1340.1649999432266},{\"x\":891,\"y\":433,\"t\":1365.9600000828505},{\"x\":856,\"y\":396,\"t\":1393.3550000656396},{\"x\":675,\"y\":345,\"t\":1419.315000064671},{\"x\":734,\"y\":341,\"t\":1444.7999999392778},{\"x\":787,\"y\":389,\"t\":1470.0200001243502},{\"x\":735,\"y\":394,\"t\":1495.6450001336634},{\"x\":685,\"y\":439,\"t\":1521.1350000463426},{\"x\":612,\"y\":188,\"t\":1546.0399999283254},{\"x\":509,\"y\":112,\"t\":1578.355000121519},{\"x\":238,\"y\":748,\"t\":1604.0700001176447},{\"x\":191,\"y\":473,\"t\":1629.4249999336898},{\"x\":588,\"y\":485,\"t\":1655.4400001186877},{\"x\":1080,\"y\":253,\"t\":1681.3900000415742},{\"x\":835,\"y\":205,\"t\":1706.6900001373142},{\"x\":844,\"y\":420,\"t\":1732.3650000616908},{\"x\":824,\"y\":440,\"t\":1757.5100001413375},{\"x\":657,\"y\":765,\"t\":1784.8050000611693},{\"x\":513,\"y\":698,\"t\":1818.5149999335408},{\"x\":718,\"y\":588,\"t\":1842.9550000000745},{\"x\":720,\"y\":564,\"t\":1867.7850000094622},{\"x\":876,\"y\":491,\"t\":1893.7550000846386},{\"x\":960,\"y\":515,\"t\":1919.4799999240786},{\"x\":857,\"y\":271,\"t\":1945.0799999758601},{\"x\":820,\"y\":439,\"t\":1969.9600001331419},{\"x\":858,\"y\":292,\"t\":1995.9500001277775},{\"x\":877,\"y\":278,\"t\":2021.5799999423325},{\"x\":823,\"y\":446,\"t\":2054.8400001134723},{\"x\":840,\"y\":251,\"t\":2081.1749999411404},{\"x\":768,\"y\":279,\"t\":2106.224999995902},{\"x\":602,\"y\":397,\"t\":2131.0600000433624},{\"x\":986,\"y\":303,\"t\":2156.4050000160933},{\"x\":1336,\"y\":518,\"t\":2182.560000102967},{\"x\":1336,\"y\":518,\"t\":2207.810000050813},{\"x\":1281,\"y\":580,\"t\":2234.9700001068413},{\"x\":1154,\"y\":599,\"t\":2261.3550000824034},{\"x\":1237,\"y\":551,\"t\":2294.620000058785},{\"x\":1263,\"y\":498,\"t\":2320.7700001075864},{\"x\":1029,\"y\":451,\"t\":2345.8150001242757},{\"x\":1029,\"y\":498,\"t\":2370.6900000106543},{\"x\":999,\"y\":365,\"t\":2395.780000137165},{\"x\":989,\"y\":460,\"t\":2421.3849999941885},{\"x\":989,\"y\":460,\"t\":2446.470000082627},{\"x\":1152,\"y\":587,\"t\":2471.9549999572337},{\"x\":966,\"y\":526,\"t\":2497.145000146702},{\"x\":925,\"y\":701,\"t\":2529.585000127554},{\"x\":790,\"y\":746,\"t\":2556.3050000928342},{\"x\":810,\"y\":835,\"t\":2581.72499993816},{\"x\":881,\"y\":764,\"t\":2607.0400001481175},{\"x\":770,\"y\":688,\"t\":2633.075000019744},{\"x\":772,\"y\":603,\"t\":2671.940000029281},{\"x\":875,\"y\":688,\"t\":2697.649999987334},{\"x\":869,\"y\":523,\"t\":2723.2649999205023},{\"x\":780,\"y\":384,\"t\":2749.1099999751896},{\"x\":752,\"y\":551,\"t\":2781.995000084862},{\"x\":752,\"y\":551,\"t\":2806.730000069365},{\"x\":628,\"y\":543,\"t\":2832.1849999483675},{\"x\":580,\"y\":398,\"t\":2857.5699999928474},{\"x\":600,\"y\":369,\"t\":2883.064999943599},{\"x\":595,\"y\":464,\"t\":2907.589999958873},{\"x\":571,\"y\":773,\"t\":2933.62500006333},{\"x\":401,\"y\":608,\"t\":2960.4700000490993},{\"x\":516,\"y\":783,\"t\":2986.8000000715256},{\"x\":552,\"y\":519,\"t\":3027.500000083819},{\"x\":570,\"y\":545,\"t\":3053.465000120923},{\"x\":641,\"y\":653,\"t\":3079.165000002831},{\"x\":480,\"y\":589,\"t\":3105.5499999783933},{\"x\":427,\"y\":664,\"t\":3129.850000143051},{\"x\":423,\"y\":637,\"t\":3155.8950000908226},{\"x\":623,\"y\":542,\"t\":3182.150000007823},{\"x\":624,\"y\":509,\"t\":3209.0450001414865},{\"x\":599,\"y\":621,\"t\":3235.6000000145286},{\"x\":574,\"y\":635,\"t\":3283.3050000481308},{\"x\":343,\"y\":681,\"t\":3313.0749999545515},{\"x\":330,\"y\":657,\"t\":3343.8500000629574},{\"x\":498,\"y\":560,\"t\":3372.084999922663},{\"x\":645,\"y\":588,\"t\":3403.415000066161},{\"x\":425,\"y\":569,\"t\":3429.8849999904633},{\"x\":306,\"y\":690,\"t\":3456.7299999762326},{\"x\":476,\"y\":599,\"t\":3484.385000076145},{\"x\":476,\"y\":599,\"t\":3510.234999936074}]",
		"x0": 10,
		"y0": 10,
		"x4": 851,
		"y4": 425,
		"w": 819,
		"h": 409,
		"trialID": "test1",
		"list": "l1",
		"trial_type": "vwp-webgazer",
		"cond": "contrast",
		"target_pic": "pickle_big.jpg",
		"target_contrast": "pickle_small.jpg",
		"big_filler": "stapler_big.jpg",
		"small_filler": "tennisball_small.jpg",
		"phase": "test-vwp",
		"trial_index": 9,
		"time_elapsed": 75115,
		"internal_node_id": "0.0-2.0-0.7"
	},
	{
		"picTL": "pictures/yoyo_small.jpg",
		"picTR": "pictures/pickle_big.jpg",
		"picBL": "pictures/cork_big.jpg",
		"picBR": "pictures/hammer_small.jpg",
		"rt": 4532.725000055507,
		"audio_stim": "sounds/hammer_small.wav",
		"clicked_on": "BR",
		"gaze_data": "[{\"x\":202,\"y\":429,\"t\":87076.14000001922},{\"x\":396,\"y\":530,\"t\":55.99999986588955},{\"x\":422,\"y\":638,\"t\":97.07999997772276},{\"x\":487,\"y\":426,\"t\":127.88999988697469},{\"x\":537,\"y\":694,\"t\":156.92500001750886},{\"x\":437,\"y\":485,\"t\":184.61499991826713},{\"x\":542,\"y\":440,\"t\":213.26499991118908},{\"x\":651,\"y\":443,\"t\":244.1050000488758},{\"x\":710,\"y\":407,\"t\":273.13999994657934},{\"x\":871,\"y\":551,\"t\":299.6999998576939},{\"x\":885,\"y\":629,\"t\":328.66499992087483},{\"x\":881,\"y\":312,\"t\":381.40499987639487},{\"x\":940,\"y\":498,\"t\":408.66499999538064},{\"x\":735,\"y\":428,\"t\":437.0249998755753},{\"x\":681,\"y\":317,\"t\":468.09499990195036},{\"x\":697,\"y\":389,\"t\":496.89999991096556},{\"x\":661,\"y\":341,\"t\":524.7750000562519},{\"x\":661,\"y\":341,\"t\":550.4999998956919},{\"x\":690,\"y\":446,\"t\":577.9949999414384},{\"x\":686,\"y\":344,\"t\":618.8300000503659},{\"x\":858,\"y\":507,\"t\":645.5200000200421},{\"x\":607,\"y\":401,\"t\":688.5750000365078},{\"x\":900,\"y\":534,\"t\":716.4950000587851},{\"x\":640,\"y\":397,\"t\":742.3950000666082},{\"x\":834,\"y\":571,\"t\":768.3500000275671},{\"x\":719,\"y\":574,\"t\":795.4499998595566},{\"x\":719,\"y\":574,\"t\":821.8999998643994},{\"x\":609,\"y\":549,\"t\":847.8649999015033},{\"x\":742,\"y\":570,\"t\":873.4599999152124},{\"x\":739,\"y\":516,\"t\":899.6850000694394},{\"x\":739,\"y\":516,\"t\":925.7549999747425},{\"x\":971,\"y\":420,\"t\":964.6199999842793},{\"x\":859,\"y\":495,\"t\":990.4399998486042},{\"x\":810,\"y\":360,\"t\":1016.4049998857081},{\"x\":899,\"y\":439,\"t\":1041.2599998526275},{\"x\":710,\"y\":236,\"t\":1067.6400000229478},{\"x\":765,\"y\":169,\"t\":1094.3149998784065},{\"x\":601,\"y\":132,\"t\":1119.0750000532717},{\"x\":656,\"y\":248,\"t\":1145.2200000640005},{\"x\":609,\"y\":366,\"t\":1171.5649999678135},{\"x\":641,\"y\":388,\"t\":1197.8100000414997},{\"x\":939,\"y\":301,\"t\":1236.2450000364333},{\"x\":709,\"y\":452,\"t\":1262.00499990955},{\"x\":822,\"y\":462,\"t\":1287.7849999349564},{\"x\":878,\"y\":511,\"t\":1313.734999857843},{\"x\":874,\"y\":336,\"t\":1338.9349998906255},{\"x\":794,\"y\":387,\"t\":1366.1050000227988},{\"x\":687,\"y\":379,\"t\":1392.4000000115484},{\"x\":598,\"y\":383,\"t\":1416.474999859929},{\"x\":592,\"y\":566,\"t\":1441.6950000450015},{\"x\":679,\"y\":436,\"t\":1468.3199999853969},{\"x\":593,\"y\":234,\"t\":1508.5899999830872},{\"x\":573,\"y\":289,\"t\":1554.7350000124425},{\"x\":474,\"y\":462,\"t\":1584.749999921769},{\"x\":495,\"y\":551,\"t\":1611.0749999061227},{\"x\":700,\"y\":489,\"t\":1636.4799998700619},{\"x\":615,\"y\":232,\"t\":1662.2599998954684},{\"x\":578,\"y\":290,\"t\":1686.9250000454485},{\"x\":750,\"y\":419,\"t\":1712.3000000137836},{\"x\":758,\"y\":345,\"t\":1737.904999870807},{\"x\":692,\"y\":463,\"t\":1780.2899999078363},{\"x\":751,\"y\":340,\"t\":1817.9549998603761},{\"x\":749,\"y\":525,\"t\":1843.9549999311566},{\"x\":518,\"y\":291,\"t\":1869.789999909699},{\"x\":488,\"y\":502,\"t\":1895.8499999716878},{\"x\":459,\"y\":428,\"t\":1921.8399999663234},{\"x\":454,\"y\":341,\"t\":1946.7749998439103},{\"x\":306,\"y\":207,\"t\":1972.5150000303984},{\"x\":900,\"y\":155,\"t\":2009.214999852702},{\"x\":1289,\"y\":705,\"t\":2034.2999999411404},{\"x\":1451,\"y\":718,\"t\":2060.520000057295},{\"x\":1173,\"y\":710,\"t\":2094.6100000292063},{\"x\":1246,\"y\":621,\"t\":2120.884999865666},{\"x\":1246,\"y\":621,\"t\":2146.019999869168},{\"x\":1123,\"y\":669,\"t\":2171.9849999062717},{\"x\":1097,\"y\":756,\"t\":2197.4049999844283},{\"x\":1268,\"y\":746,\"t\":2222.2849999088794},{\"x\":1347,\"y\":751,\"t\":2247.7100000251085},{\"x\":1407,\"y\":627,\"t\":2273.2100000139326},{\"x\":1497,\"y\":709,\"t\":2298.234999878332},{\"x\":1297,\"y\":664,\"t\":2323.5100000165403},{\"x\":1297,\"y\":664,\"t\":2356.8100000265986},{\"x\":1334,\"y\":493,\"t\":2382.289999863133},{\"x\":1304,\"y\":562,\"t\":2408.6050000041723},{\"x\":1266,\"y\":517,\"t\":2434.3799999915063},{\"x\":808,\"y\":528,\"t\":2463.2399999536574},{\"x\":819,\"y\":480,\"t\":2490.2599998749793},{\"x\":819,\"y\":480,\"t\":2515.595000004396},{\"x\":786,\"y\":608,\"t\":2541.2649998907},{\"x\":821,\"y\":491,\"t\":2566.8649999424815},{\"x\":821,\"y\":491,\"t\":2591.6199998464435},{\"x\":885,\"y\":577,\"t\":2634.244999848306},{\"x\":706,\"y\":479,\"t\":2665.6150000635535},{\"x\":706,\"y\":479,\"t\":2690.9900000318885},{\"x\":278,\"y\":634,\"t\":2716.0099998582155},{\"x\":330,\"y\":684,\"t\":2741.1100000608712},{\"x\":582,\"y\":687,\"t\":2765.995000023395},{\"x\":229,\"y\":640,\"t\":2793.034999864176},{\"x\":476,\"y\":635,\"t\":2817.6450000610203},{\"x\":386,\"y\":565,\"t\":2845.2800000086427},{\"x\":419,\"y\":725,\"t\":2870.924999937415},{\"x\":440,\"y\":577,\"t\":2904.3600000441074},{\"x\":441,\"y\":655,\"t\":2930.604999884963},{\"x\":441,\"y\":655,\"t\":2955.0049998797476},{\"x\":471,\"y\":696,\"t\":2979.5049999374896},{\"x\":461,\"y\":565,\"t\":3005.0699999555945},{\"x\":387,\"y\":549,\"t\":3031.944999936968},{\"x\":421,\"y\":544,\"t\":3057.8949998598546},{\"x\":297,\"y\":491,\"t\":3082.4049999937415},{\"x\":395,\"y\":406,\"t\":3108.0749998800457},{\"x\":386,\"y\":532,\"t\":3145.634999964386},{\"x\":310,\"y\":673,\"t\":3179.719999898225},{\"x\":574,\"y\":497,\"t\":3205.1800000481308},{\"x\":293,\"y\":260,\"t\":3230.3049999754876},{\"x\":194,\"y\":124,\"t\":3255.085000069812},{\"x\":352,\"y\":46,\"t\":3279.6799999196082},{\"x\":505,\"y\":43,\"t\":3305.6749999523163},{\"x\":556,\"y\":135,\"t\":3331.5200000070035},{\"x\":623,\"y\":192,\"t\":3357.4049999006093},{\"x\":431,\"y\":251,\"t\":3381.939999992028},{\"x\":551,\"y\":214,\"t\":3406.9649998564273},{\"x\":510,\"y\":183,\"t\":3439.6249998826534},{\"x\":540,\"y\":256,\"t\":3465.0900000706315},{\"x\":595,\"y\":337,\"t\":3492.4349999055266},{\"x\":669,\"y\":308,\"t\":3516.9199998490512},{\"x\":1159,\"y\":409,\"t\":3541.7249999009073},{\"x\":1461,\"y\":480,\"t\":3568.4650000184774},{\"x\":1325,\"y\":321,\"t\":3594.27999984473},{\"x\":1325,\"y\":321,\"t\":3619.165000040084},{\"x\":1214,\"y\":307,\"t\":3645.194999873638},{\"x\":1056,\"y\":247,\"t\":3671.4250000659376},{\"x\":1135,\"y\":658,\"t\":3707.3200000450015},{\"x\":1464,\"y\":207,\"t\":3734.4249999150634},{\"x\":1433,\"y\":95,\"t\":3762.0399999432266},{\"x\":1484,\"y\":471,\"t\":3789.684999966994},{\"x\":1484,\"y\":471,\"t\":3816.450000042096},{\"x\":1314,\"y\":539,\"t\":3844.275000039488},{\"x\":1342,\"y\":454,\"t\":3871.885000029579},{\"x\":1240,\"y\":364,\"t\":3897.910000057891},{\"x\":1339,\"y\":451,\"t\":3925.084999995306},{\"x\":1271,\"y\":505,\"t\":3951.009999960661},{\"x\":1349,\"y\":758,\"t\":3992.5599999260157},{\"x\":1286,\"y\":740,\"t\":4018.2349998503923},{\"x\":1303,\"y\":651,\"t\":4045.1549999415874},{\"x\":1354,\"y\":777,\"t\":4071.4849999640137},{\"x\":1362,\"y\":714,\"t\":4098.544999957085},{\"x\":1424,\"y\":565,\"t\":4124.779999954626},{\"x\":1433,\"y\":618,\"t\":4150.565000018105},{\"x\":1277,\"y\":567,\"t\":4176.719999872148},{\"x\":1291,\"y\":631,\"t\":4202.134999912232},{\"x\":1223,\"y\":363,\"t\":4230.734999990091},{\"x\":1277,\"y\":699,\"t\":4273.39500002563},{\"x\":1219,\"y\":570,\"t\":4299.039999954402},{\"x\":1266,\"y\":688,\"t\":4326.330000068992},{\"x\":1266,\"y\":688,\"t\":4351.544999983162},{\"x\":1214,\"y\":676,\"t\":4377.549999859184},{\"x\":1399,\"y\":782,\"t\":4403.569999849424},{\"x\":1365,\"y\":779,\"t\":4429.400000022724},{\"x\":1365,\"y\":779,\"t\":4453.890000004321},{\"x\":1484,\"y\":715,\"t\":4480.024999938905},{\"x\":1484,\"y\":892,\"t\":4506.049999967217}]",
		"x0": 10,
		"y0": 10,
		"x4": 851,
		"y4": 425,
		"w": 819,
		"h": 409,
		"trialID": "test21",
		"list": "l1",
		"trial_type": "vwp-webgazer",
		"cond": "no_contrast",
		"target_pic": "hammer_small.jpg",
		"target_contrast": "pickle_big.jpg",
		"big_filler": "cork_big.jpg",
		"small_filler": "yoyo_small.jpg",
		"phase": "test-vwp",
		"trial_index": 10,
		"time_elapsed": 79678,
		"internal_node_id": "0.0-2.0-0.8"
	},
	{
		"picTL": "pictures/ball_big.jpg",
		"picTR": "pictures/ball_small.jpg",
		"picBL": "pictures/iguana_big.jpg",
		"picBR": "pictures/lime_small.jpg",
		"rt": 4277.549999998882,
		"audio_stim": "sounds/ball_big.wav",
		"clicked_on": "TL",
		"gaze_data": "[{\"x\":1474,\"y\":595,\"t\":91639.10499983467},{\"x\":1158,\"y\":648,\"t\":31.205000123009086},{\"x\":1221,\"y\":634,\"t\":56.259999983012676},{\"x\":1221,\"y\":634,\"t\":82.27500016801059},{\"x\":1365,\"y\":611,\"t\":108.63000014796853},{\"x\":1233,\"y\":537,\"t\":135.11000014841557},{\"x\":1233,\"y\":537,\"t\":160.8450000640005},{\"x\":1156,\"y\":625,\"t\":186.20500015094876},{\"x\":1182,\"y\":649,\"t\":211.37499995529652},{\"x\":1240,\"y\":644,\"t\":237.99500009045005},{\"x\":1334,\"y\":762,\"t\":265.08500007912517},{\"x\":1262,\"y\":867,\"t\":291.3750000298023},{\"x\":1262,\"y\":617,\"t\":352.63000009581447},{\"x\":1082,\"y\":622,\"t\":380.9350000228733},{\"x\":1200,\"y\":623,\"t\":408.6200001183897},{\"x\":1201,\"y\":663,\"t\":435.77000009827316},{\"x\":1206,\"y\":499,\"t\":463.23500014841557},{\"x\":1136,\"y\":476,\"t\":490.75000011362135},{\"x\":1136,\"y\":476,\"t\":516.5150000248104},{\"x\":1029,\"y\":535,\"t\":542.8349999710917},{\"x\":1051,\"y\":528,\"t\":570.7400001119822},{\"x\":1066,\"y\":433,\"t\":598.4900000039488},{\"x\":824,\"y\":650,\"t\":625.1650000922382},{\"x\":806,\"y\":400,\"t\":684.4900001306087},{\"x\":839,\"y\":455,\"t\":717.8950000088662},{\"x\":836,\"y\":415,\"t\":744.4500001147389},{\"x\":769,\"y\":403,\"t\":772.069999948144},{\"x\":807,\"y\":497,\"t\":799.5100000407547},{\"x\":619,\"y\":202,\"t\":824.5950001291931},{\"x\":726,\"y\":78,\"t\":850.5750000476837},{\"x\":635,\"y\":69,\"t\":877.5200000964105},{\"x\":417,\"y\":405,\"t\":903.2550000119954},{\"x\":432,\"y\":101,\"t\":930.5000000167638},{\"x\":631,\"y\":84,\"t\":956.1400001402944},{\"x\":715,\"y\":229,\"t\":1002.8699999675155},{\"x\":801,\"y\":323,\"t\":1030.8250000234693},{\"x\":851,\"y\":427,\"t\":1056.5349999815226},{\"x\":851,\"y\":427,\"t\":1083.240000065416},{\"x\":678,\"y\":408,\"t\":1110.4600001126528},{\"x\":723,\"y\":417,\"t\":1142.9850000422448},{\"x\":853,\"y\":613,\"t\":1170.1450000982732},{\"x\":805,\"y\":637,\"t\":1211.5750000812113},{\"x\":672,\"y\":508,\"t\":1238.2450001314282},{\"x\":707,\"y\":559,\"t\":1264.5650000777096},{\"x\":724,\"y\":758,\"t\":1289.5500001031905},{\"x\":246,\"y\":539,\"t\":1328.880000161007},{\"x\":493,\"y\":573,\"t\":1354.6700000297278},{\"x\":504,\"y\":418,\"t\":1380.7200000155717},{\"x\":894,\"y\":270,\"t\":1407.1049999911338},{\"x\":915,\"y\":202,\"t\":1433.0649999901652},{\"x\":810,\"y\":297,\"t\":1458.4550000727177},{\"x\":991,\"y\":378,\"t\":1483.2050001714379},{\"x\":932,\"y\":289,\"t\":1508.834999985993},{\"x\":877,\"y\":486,\"t\":1535.0000001490116},{\"x\":821,\"y\":575,\"t\":1561.2800000235438},{\"x\":667,\"y\":570,\"t\":1588.4400000795722},{\"x\":721,\"y\":615,\"t\":1622.535000089556},{\"x\":817,\"y\":752,\"t\":1648.0950000695884},{\"x\":666,\"y\":604,\"t\":1673.9850000012666},{\"x\":632,\"y\":485,\"t\":1699.5600000955164},{\"x\":632,\"y\":485,\"t\":1724.8800001107156},{\"x\":723,\"y\":446,\"t\":1750.840000109747},{\"x\":875,\"y\":187,\"t\":1775.995000032708},{\"x\":833,\"y\":159,\"t\":1802.2900000214577},{\"x\":641,\"y\":251,\"t\":1828.1549999956042},{\"x\":810,\"y\":417,\"t\":1853.2549999654293},{\"x\":935,\"y\":387,\"t\":1888.0150001496077},{\"x\":852,\"y\":484,\"t\":1924.4600001256913},{\"x\":801,\"y\":391,\"t\":1950.975000159815},{\"x\":737,\"y\":301,\"t\":1977.4100000504404},{\"x\":714,\"y\":343,\"t\":2003.0549999792129},{\"x\":735,\"y\":305,\"t\":2030.3200001362711},{\"x\":944,\"y\":273,\"t\":2054.8000000417233},{\"x\":968,\"y\":335,\"t\":2080.4449999704957},{\"x\":896,\"y\":575,\"t\":2106.0600001364946},{\"x\":881,\"y\":561,\"t\":2132.2399999480695},{\"x\":889,\"y\":422,\"t\":2156.3500000629574},{\"x\":910,\"y\":625,\"t\":2182.625000132248},{\"x\":875,\"y\":502,\"t\":2216.3350000046194},{\"x\":808,\"y\":315,\"t\":2242.1800000593066},{\"x\":942,\"y\":688,\"t\":2268.815000075847},{\"x\":783,\"y\":521,\"t\":2294.7649999987334},{\"x\":875,\"y\":628,\"t\":2320.035000098869},{\"x\":845,\"y\":495,\"t\":2346.0999999661},{\"x\":785,\"y\":475,\"t\":2371.144999982789},{\"x\":652,\"y\":491,\"t\":2397.160000167787},{\"x\":676,\"y\":480,\"t\":2421.650000149384},{\"x\":557,\"y\":443,\"t\":2447.165000019595},{\"x\":611,\"y\":568,\"t\":2472.9150000493973},{\"x\":732,\"y\":532,\"t\":2507.3200000915676},{\"x\":729,\"y\":425,\"t\":2532.469999976456},{\"x\":729,\"y\":425,\"t\":2557.0500001776963},{\"x\":579,\"y\":426,\"t\":2583.2450001034886},{\"x\":655,\"y\":467,\"t\":2608.4249999839813},{\"x\":643,\"y\":402,\"t\":2634.220000123605},{\"x\":728,\"y\":475,\"t\":2658.290000166744},{\"x\":647,\"y\":302,\"t\":2684.035000158474},{\"x\":738,\"y\":463,\"t\":2716.8499999679625},{\"x\":716,\"y\":379,\"t\":2741.97500012815},{\"x\":659,\"y\":306,\"t\":2767.1250000130385},{\"x\":828,\"y\":364,\"t\":2801.0150000918657},{\"x\":716,\"y\":350,\"t\":2826.080000028014},{\"x\":716,\"y\":350,\"t\":2850.865000160411},{\"x\":720,\"y\":378,\"t\":2876.8150000832975},{\"x\":710,\"y\":438,\"t\":2901.9049999769777},{\"x\":739,\"y\":606,\"t\":2929.1000000666827},{\"x\":763,\"y\":572,\"t\":2954.3200000189245},{\"x\":792,\"y\":596,\"t\":2979.174999985844},{\"x\":690,\"y\":503,\"t\":3005.2800001576543},{\"x\":734,\"y\":513,\"t\":3031.0200001113117},{\"x\":734,\"y\":513,\"t\":3055.610000155866},{\"x\":578,\"y\":366,\"t\":3089.8550001438707},{\"x\":535,\"y\":383,\"t\":3114.88000000827},{\"x\":525,\"y\":398,\"t\":3140.6400001142174},{\"x\":584,\"y\":534,\"t\":3166.3200000766665},{\"x\":588,\"y\":542,\"t\":3190.910000121221},{\"x\":633,\"y\":570,\"t\":3216.4600000251085},{\"x\":599,\"y\":283,\"t\":3242.4350001383573},{\"x\":509,\"y\":165,\"t\":3267.7350000012666},{\"x\":478,\"y\":308,\"t\":3293.8500000163913},{\"x\":769,\"y\":310,\"t\":3319.1400000359863},{\"x\":451,\"y\":298,\"t\":3344.370000064373},{\"x\":548,\"y\":178,\"t\":3391.5750000160187},{\"x\":372,\"y\":93,\"t\":3423.6350001301616},{\"x\":590,\"y\":306,\"t\":3449.8250000178814},{\"x\":425,\"y\":107,\"t\":3476.909999968484},{\"x\":700,\"y\":211,\"t\":3503.275000024587},{\"x\":518,\"y\":221,\"t\":3529.080000007525},{\"x\":712,\"y\":244,\"t\":3556.0300000943244},{\"x\":454,\"y\":271,\"t\":3582.4450000654906},{\"x\":626,\"y\":228,\"t\":3608.970000175759},{\"x\":581,\"y\":196,\"t\":3635.810000123456},{\"x\":763,\"y\":109,\"t\":3661.9649999774992},{\"x\":689,\"y\":258,\"t\":3701.230000006035},{\"x\":632,\"y\":245,\"t\":3726.0849999729544},{\"x\":537,\"y\":160,\"t\":3750.6800000555813},{\"x\":550,\"y\":228,\"t\":3777.195000089705},{\"x\":512,\"y\":152,\"t\":3803.4500000067055},{\"x\":438,\"y\":161,\"t\":3829.0999999735504},{\"x\":432,\"y\":216,\"t\":3854.320000158623},{\"x\":533,\"y\":325,\"t\":3895.0100000947714},{\"x\":492,\"y\":199,\"t\":3919.5950001012534},{\"x\":451,\"y\":200,\"t\":3947.2650000825524},{\"x\":573,\"y\":348,\"t\":3973.7050000112504},{\"x\":420,\"y\":218,\"t\":4007.200000109151},{\"x\":388,\"y\":159,\"t\":4033.629999961704},{\"x\":526,\"y\":426,\"t\":4058.930000057444},{\"x\":367,\"y\":200,\"t\":4083.4250000771135},{\"x\":428,\"y\":484,\"t\":4110.660000005737},{\"x\":535,\"y\":273,\"t\":4137.170000001788},{\"x\":358,\"y\":254,\"t\":4163.064999971539},{\"x\":283,\"y\":127,\"t\":4188.2949999999255},{\"x\":177,\"y\":245,\"t\":4214.064999949187},{\"x\":392,\"y\":151,\"t\":4239.645000081509},{\"x\":484,\"y\":155,\"t\":4265.875000040978}]",
		"x0": 10,
		"y0": 10,
		"x4": 851,
		"y4": 425,
		"w": 819,
		"h": 409,
		"trialID": "test14",
		"list": "l1",
		"trial_type": "vwp-webgazer",
		"cond": "contrast",
		"target_pic": "ball_big.jpg",
		"target_contrast": "ball_small.jpg",
		"big_filler": "iguana_big.jpg",
		"small_filler": "lime_small.jpg",
		"phase": "test-vwp",
		"trial_index": 11,
		"time_elapsed": 83985,
		"internal_node_id": "0.0-2.0-0.9"
	},
	{
		"picTL": "pictures/hat_big.jpg",
		"picTR": "pictures/cane_big.jpg",
		"picBL": "pictures/alligator_small.jpg",
		"picBR": "pictures/onion_small.jpg",
		"rt": 4723.929999861866,
		"audio_stim": "sounds/onion_small.wav",
		"clicked_on": "BR",
		"gaze_data": "[{\"x\":254,\"y\":255,\"t\":95943.09999980032},{\"x\":45,\"y\":159,\"t\":28.309999965131283},{\"x\":342,\"y\":234,\"t\":53.34499990567565},{\"x\":141,\"y\":65,\"t\":78.80999986082315},{\"x\":551,\"y\":379,\"t\":104.67499983496964},{\"x\":536,\"y\":382,\"t\":130.6049998383969},{\"x\":281,\"y\":300,\"t\":156.2250000424683},{\"x\":440,\"y\":269,\"t\":180.96499983221292},{\"x\":544,\"y\":490,\"t\":206.41499990597367},{\"x\":588,\"y\":348,\"t\":232.09499986842275},{\"x\":504,\"y\":307,\"t\":258.7749999947846},{\"x\":299,\"y\":325,\"t\":284.05999997630715},{\"x\":518,\"y\":268,\"t\":311.40999984927475},{\"x\":351,\"y\":187,\"t\":364.0649998560548},{\"x\":495,\"y\":272,\"t\":390.72999986819923},{\"x\":320,\"y\":223,\"t\":416.0499998833984},{\"x\":500,\"y\":283,\"t\":442.0300000347197},{\"x\":412,\"y\":319,\"t\":468.6449998989701},{\"x\":467,\"y\":313,\"t\":496.2249998934567},{\"x\":524,\"y\":344,\"t\":521.839999826625},{\"x\":565,\"y\":213,\"t\":547.9049999266863},{\"x\":743,\"y\":263,\"t\":575.7949999533594},{\"x\":824,\"y\":254,\"t\":602.1000000182539},{\"x\":851,\"y\":448,\"t\":628.9099999703467},{\"x\":654,\"y\":456,\"t\":654.6199999283999},{\"x\":857,\"y\":556,\"t\":696.4350000489503},{\"x\":894,\"y\":405,\"t\":722.889999859035},{\"x\":765,\"y\":570,\"t\":749.3749998975545},{\"x\":758,\"y\":285,\"t\":776.0749999433756},{\"x\":817,\"y\":354,\"t\":802.214999916032},{\"x\":754,\"y\":421,\"t\":828.3849998842925},{\"x\":830,\"y\":322,\"t\":854.5599998906255},{\"x\":796,\"y\":326,\"t\":880.8049999643117},{\"x\":816,\"y\":455,\"t\":907.3399999178946},{\"x\":809,\"y\":382,\"t\":933.9949998538941},{\"x\":849,\"y\":352,\"t\":964.1149998642504},{\"x\":808,\"y\":221,\"t\":997.6249998435378},{\"x\":762,\"y\":613,\"t\":1062.2949998360127},{\"x\":713,\"y\":450,\"t\":1098.9699999336153},{\"x\":852,\"y\":625,\"t\":1132.3150000534952},{\"x\":844,\"y\":368,\"t\":1167.494999943301},{\"x\":753,\"y\":315,\"t\":1215.1450000237674},{\"x\":563,\"y\":258,\"t\":1249.294999986887},{\"x\":619,\"y\":224,\"t\":1283.32499996759},{\"x\":673,\"y\":255,\"t\":1319.114999845624},{\"x\":495,\"y\":283,\"t\":1352.130000013858},{\"x\":643,\"y\":818,\"t\":1384.1099999845028},{\"x\":721,\"y\":541,\"t\":1411.7300000507385},{\"x\":300,\"y\":476,\"t\":1437.8649999853224},{\"x\":573,\"y\":507,\"t\":1479.7699998598546},{\"x\":823,\"y\":511,\"t\":1506.4399999100715},{\"x\":835,\"y\":248,\"t\":1532.8199998475611},{\"x\":881,\"y\":369,\"t\":1559.3299998436123},{\"x\":821,\"y\":410,\"t\":1584.034999832511},{\"x\":1243,\"y\":380,\"t\":1610.0449999794364},{\"x\":844,\"y\":519,\"t\":1635.624999878928},{\"x\":722,\"y\":401,\"t\":1661.8899998720735},{\"x\":770,\"y\":660,\"t\":1687.8949999809265},{\"x\":801,\"y\":551,\"t\":1713.1550000049174},{\"x\":713,\"y\":554,\"t\":1757.6150000095367},{\"x\":828,\"y\":648,\"t\":1784.8549999762326},{\"x\":534,\"y\":504,\"t\":1830.684999935329},{\"x\":627,\"y\":431,\"t\":1862.0149998459965},{\"x\":673,\"y\":490,\"t\":1887.299999827519},{\"x\":673,\"y\":490,\"t\":1912.5349998939782},{\"x\":693,\"y\":581,\"t\":1937.7349999267608},{\"x\":670,\"y\":513,\"t\":1963.4149998892099},{\"x\":722,\"y\":650,\"t\":1990.3700000140816},{\"x\":762,\"y\":517,\"t\":2015.489999903366},{\"x\":717,\"y\":517,\"t\":2040.419999975711},{\"x\":602,\"y\":551,\"t\":2065.9499999601394},{\"x\":613,\"y\":467,\"t\":2091.359999962151},{\"x\":613,\"y\":467,\"t\":2116.7299998924136},{\"x\":657,\"y\":500,\"t\":2150.514999870211},{\"x\":578,\"y\":482,\"t\":2176.095000002533},{\"x\":615,\"y\":520,\"t\":2201.589999953285},{\"x\":536,\"y\":597,\"t\":2228.2650000415742},{\"x\":596,\"y\":362,\"t\":2253.0900000128895},{\"x\":596,\"y\":362,\"t\":2278.6349998787045},{\"x\":642,\"y\":447,\"t\":2305.584999965504},{\"x\":611,\"y\":322,\"t\":2343.624999979511},{\"x\":677,\"y\":476,\"t\":2370.0049999170005},{\"x\":681,\"y\":454,\"t\":2395.1250000391155},{\"x\":765,\"y\":479,\"t\":2419.7949999943376},{\"x\":649,\"y\":304,\"t\":2445.060000056401},{\"x\":650,\"y\":374,\"t\":2480.384999886155},{\"x\":595,\"y\":263,\"t\":2506.5049999393523},{\"x\":690,\"y\":426,\"t\":2531.754999887198},{\"x\":800,\"y\":254,\"t\":2557.5699999462813},{\"x\":686,\"y\":167,\"t\":2582.9600000288337},{\"x\":745,\"y\":367,\"t\":2610.3799999691546},{\"x\":782,\"y\":368,\"t\":2638.35999998264},{\"x\":772,\"y\":372,\"t\":2664.7949998732656},{\"x\":769,\"y\":457,\"t\":2692.9150000214577},{\"x\":769,\"y\":457,\"t\":2717.6949998829514},{\"x\":832,\"y\":386,\"t\":2743.779999902472},{\"x\":855,\"y\":356,\"t\":2768.8299999572337},{\"x\":946,\"y\":565,\"t\":2803.7049998529255},{\"x\":863,\"y\":546,\"t\":2830.2899999544024},{\"x\":863,\"y\":546,\"t\":2855.059999972582},{\"x\":751,\"y\":368,\"t\":2879.874999867752},{\"x\":911,\"y\":287,\"t\":2905.7849999517202},{\"x\":776,\"y\":280,\"t\":2930.984999984503},{\"x\":755,\"y\":456,\"t\":2956.789999967441},{\"x\":636,\"y\":676,\"t\":2981.394999893382},{\"x\":530,\"y\":470,\"t\":3006.550000049174},{\"x\":111,\"y\":558,\"t\":3032.8349999617785},{\"x\":336,\"y\":468,\"t\":3059.089999878779},{\"x\":421,\"y\":479,\"t\":3082.8249999321997},{\"x\":1025,\"y\":208,\"t\":3117.4349999055266},{\"x\":1155,\"y\":127,\"t\":3143.3999999426305},{\"x\":1342,\"y\":218,\"t\":3168.104999931529},{\"x\":1023,\"y\":246,\"t\":3193.74500005506},{\"x\":995,\"y\":512,\"t\":3218.875000020489},{\"x\":986,\"y\":471,\"t\":3245.0599998701364},{\"x\":1007,\"y\":546,\"t\":3270.879999967292},{\"x\":923,\"y\":511,\"t\":3295.884999912232},{\"x\":734,\"y\":312,\"t\":3320.4550000373274},{\"x\":735,\"y\":331,\"t\":3345.63499991782},{\"x\":759,\"y\":499,\"t\":3371.0399998817593},{\"x\":554,\"y\":261,\"t\":3397.0449999906123},{\"x\":556,\"y\":275,\"t\":3433.1049998290837},{\"x\":556,\"y\":275,\"t\":3461.0150000080466},{\"x\":615,\"y\":275,\"t\":3491.189999971539},{\"x\":685,\"y\":269,\"t\":3516.5750000160187},{\"x\":717,\"y\":326,\"t\":3541.634999914095},{\"x\":738,\"y\":350,\"t\":3566.5899999439716},{\"x\":731,\"y\":482,\"t\":3592.3649999313056},{\"x\":791,\"y\":585,\"t\":3618.1399999186397},{\"x\":749,\"y\":472,\"t\":3643.320000031963},{\"x\":768,\"y\":466,\"t\":3668.6899999622256},{\"x\":559,\"y\":493,\"t\":3694.344999967143},{\"x\":594,\"y\":450,\"t\":3719.529999885708},{\"x\":611,\"y\":492,\"t\":3754.3450000230223},{\"x\":638,\"y\":450,\"t\":3779.9599999561906},{\"x\":594,\"y\":485,\"t\":3813.7250000145286},{\"x\":603,\"y\":535,\"t\":3839.0399999916553},{\"x\":602,\"y\":592,\"t\":3864.2949999775738},{\"x\":602,\"y\":592,\"t\":3889.1799999400973},{\"x\":952,\"y\":484,\"t\":3913.4049999993294},{\"x\":1197,\"y\":613,\"t\":3938.8549998402596},{\"x\":1082,\"y\":664,\"t\":3963.939999928698},{\"x\":1142,\"y\":674,\"t\":3989.8749999701977},{\"x\":1121,\"y\":701,\"t\":4014.4400000572205},{\"x\":1364,\"y\":580,\"t\":4039.5700000226498},{\"x\":1340,\"y\":804,\"t\":4073.325000004843},{\"x\":1345,\"y\":634,\"t\":4099.285000003874},{\"x\":1343,\"y\":607,\"t\":4126.24999997206},{\"x\":1219,\"y\":656,\"t\":4152.944999979809},{\"x\":1260,\"y\":660,\"t\":4178.330000024289},{\"x\":1321,\"y\":594,\"t\":4204.18499992229},{\"x\":1323,\"y\":622,\"t\":4231.535000028089},{\"x\":1256,\"y\":615,\"t\":4258.224999997765},{\"x\":1275,\"y\":683,\"t\":4283.245000056922},{\"x\":1164,\"y\":714,\"t\":4310.2100000251085},{\"x\":1117,\"y\":557,\"t\":4336.969999829307},{\"x\":1189,\"y\":559,\"t\":4362.990000052378},{\"x\":1201,\"y\":521,\"t\":4415.2150000445545},{\"x\":1225,\"y\":662,\"t\":4446.084999945015},{\"x\":1326,\"y\":741,\"t\":4471.464999951422},{\"x\":1191,\"y\":676,\"t\":4498.634999850765},{\"x\":1298,\"y\":695,\"t\":4524.399999994785},{\"x\":1203,\"y\":556,\"t\":4549.554999917746},{\"x\":1320,\"y\":632,\"t\":4575.715000042692},{\"x\":1144,\"y\":459,\"t\":4600.94999987632},{\"x\":1051,\"y\":582,\"t\":4626.769999973476},{\"x\":1051,\"y\":582,\"t\":4651.725000003353},{\"x\":1209,\"y\":639,\"t\":4678.5349999554455},{\"x\":1073,\"y\":615,\"t\":4705.180000048131}]",
		"x0": 10,
		"y0": 10,
		"x4": 851,
		"y4": 425,
		"w": 819,
		"h": 409,
		"trialID": "test25",
		"list": "l1",
		"trial_type": "vwp-webgazer",
		"cond": "no_contrast",
		"target_pic": "onion_small.jpg",
		"target_contrast": "hat_big.jpg",
		"big_filler": "cane_big.jpg",
		"small_filler": "alligator_small.jpg",
		"phase": "test-vwp",
		"trial_index": 12,
		"time_elapsed": 88736,
		"internal_node_id": "0.0-2.0-0.10"
	},
	{
		"picTL": "pictures/feather_small.jpg",
		"picTR": "pictures/basket_big.jpg",
		"picBL": "pictures/washer_small.jpg",
		"picBR": "pictures/pear_big.jpg",
		"rt": 4334.155000047758,
		"audio_stim": "sounds/feather_small.wav",
		"clicked_on": "TL",
		"gaze_data": "[{\"x\":1101,\"y\":599,\"t\":100696.86499983072},{\"x\":1099,\"y\":404,\"t\":28.55499996803701},{\"x\":1230,\"y\":657,\"t\":55.28500000946224},{\"x\":1262,\"y\":695,\"t\":81.46000001579523},{\"x\":1240,\"y\":883,\"t\":120.68499997258186},{\"x\":1198,\"y\":740,\"t\":147.45000004768372},{\"x\":1165,\"y\":725,\"t\":174.20500004664063},{\"x\":1165,\"y\":725,\"t\":201.365000102669},{\"x\":1310,\"y\":711,\"t\":226.69499996118248},{\"x\":1338,\"y\":679,\"t\":253.59999993816018},{\"x\":1309,\"y\":608,\"t\":279.3499999679625},{\"x\":1340,\"y\":736,\"t\":305.48500013537705},{\"x\":1291,\"y\":701,\"t\":329.9249999690801},{\"x\":1288,\"y\":573,\"t\":356.15499992854893},{\"x\":1135,\"y\":570,\"t\":402.2550000809133},{\"x\":1221,\"y\":649,\"t\":427.7850000653416},{\"x\":1231,\"y\":587,\"t\":453.32000008784235},{\"x\":1110,\"y\":486,\"t\":479.85000000335276},{\"x\":1314,\"y\":569,\"t\":505.7099999394268},{\"x\":1314,\"y\":569,\"t\":530.6150000542402},{\"x\":1093,\"y\":439,\"t\":557.0150001440197},{\"x\":1231,\"y\":637,\"t\":582.1150001138449},{\"x\":1199,\"y\":636,\"t\":608.4249999839813},{\"x\":1208,\"y\":653,\"t\":634.5450000371784},{\"x\":1338,\"y\":641,\"t\":659.6649999264628},{\"x\":1233,\"y\":678,\"t\":685.4449999518692},{\"x\":1189,\"y\":576,\"t\":711.1550001427531},{\"x\":1132,\"y\":667,\"t\":747.450000140816},{\"x\":1192,\"y\":477,\"t\":775.2499999478459},{\"x\":1245,\"y\":710,\"t\":802.4049999658018},{\"x\":1245,\"y\":710,\"t\":828.260000096634},{\"x\":892,\"y\":552,\"t\":855.7850001379848},{\"x\":933,\"y\":589,\"t\":881.3849999569356},{\"x\":779,\"y\":446,\"t\":909.0500001329929},{\"x\":762,\"y\":411,\"t\":935.5049999430776},{\"x\":639,\"y\":418,\"t\":960.2399999275804},{\"x\":729,\"y\":365,\"t\":986.1650001257658},{\"x\":680,\"y\":550,\"t\":1012.455000076443},{\"x\":680,\"y\":550,\"t\":1037.1199999935925},{\"x\":749,\"y\":504,\"t\":1064.2949999310076},{\"x\":633,\"y\":403,\"t\":1133.559999987483},{\"x\":713,\"y\":563,\"t\":1161.1900001298636},{\"x\":739,\"y\":435,\"t\":1188.2500001229346},{\"x\":685,\"y\":305,\"t\":1216.054999968037},{\"x\":698,\"y\":465,\"t\":1252.3400001227856},{\"x\":631,\"y\":504,\"t\":1279.670000076294},{\"x\":651,\"y\":556,\"t\":1306.4200000371784},{\"x\":761,\"y\":678,\"t\":1331.0800001490861},{\"x\":572,\"y\":613,\"t\":1357.8900001011789},{\"x\":714,\"y\":582,\"t\":1383.5350000299513},{\"x\":645,\"y\":549,\"t\":1409.345000050962},{\"x\":647,\"y\":454,\"t\":1434.8400000017136},{\"x\":647,\"y\":454,\"t\":1459.4799999613315},{\"x\":1002,\"y\":493,\"t\":1503.6850001197308},{\"x\":887,\"y\":190,\"t\":1533.2049999851733},{\"x\":859,\"y\":566,\"t\":1559.1450000647455},{\"x\":751,\"y\":467,\"t\":1584.9500000476837},{\"x\":840,\"y\":573,\"t\":1610.6100000906736},{\"x\":902,\"y\":543,\"t\":1637.0350001379848},{\"x\":851,\"y\":445,\"t\":1662.4150001443923},{\"x\":660,\"y\":374,\"t\":1689.2399999778718},{\"x\":765,\"y\":516,\"t\":1715.654999949038},{\"x\":516,\"y\":531,\"t\":1741.1150000989437},{\"x\":570,\"y\":771,\"t\":1769.5999999996275},{\"x\":638,\"y\":689,\"t\":1795.6050001084805},{\"x\":692,\"y\":391,\"t\":1821.7849999200553},{\"x\":521,\"y\":522,\"t\":1857.9150000587106},{\"x\":563,\"y\":318,\"t\":1883.6850000079721},{\"x\":576,\"y\":249,\"t\":1909.2200000304729},{\"x\":593,\"y\":251,\"t\":1935.204999987036},{\"x\":737,\"y\":406,\"t\":1961.0049999319017},{\"x\":410,\"y\":140,\"t\":1986.544999992475},{\"x\":481,\"y\":441,\"t\":2012.4150000046939},{\"x\":569,\"y\":15,\"t\":2038.895000005141},{\"x\":385,\"y\":117,\"t\":2064.119999995455},{\"x\":456,\"y\":1,\"t\":2089.8700000252575},{\"x\":585,\"y\":263,\"t\":2116.0349999554455},{\"x\":468,\"y\":296,\"t\":2141.4700001478195},{\"x\":402,\"y\":177,\"t\":2167.369999922812},{\"x\":668,\"y\":374,\"t\":2212.0350000914186},{\"x\":746,\"y\":424,\"t\":2243.000000016764},{\"x\":753,\"y\":200,\"t\":2267.7599999587983},{\"x\":822,\"y\":322,\"t\":2292.7850000560284},{\"x\":731,\"y\":87,\"t\":2318.6550000682473},{\"x\":801,\"y\":194,\"t\":2344.065000070259},{\"x\":1066,\"y\":467,\"t\":2370.5500001087785},{\"x\":1007,\"y\":354,\"t\":2395.225000102073},{\"x\":904,\"y\":389,\"t\":2419.8799999430776},{\"x\":1038,\"y\":170,\"t\":2446.005000034347},{\"x\":1162,\"y\":222,\"t\":2471.845000050962},{\"x\":971,\"y\":296,\"t\":2496.375000104308},{\"x\":1124,\"y\":194,\"t\":2522.660000016913},{\"x\":948,\"y\":423,\"t\":2558.279999997467},{\"x\":1032,\"y\":349,\"t\":2584.040000103414},{\"x\":974,\"y\":232,\"t\":2610.0999999325722},{\"x\":1009,\"y\":130,\"t\":2635.835000080988},{\"x\":891,\"y\":197,\"t\":2661.305000074208},{\"x\":1030,\"y\":170,\"t\":2697.9199999477714},{\"x\":1037,\"y\":169,\"t\":2724.415000062436},{\"x\":1069,\"y\":189,\"t\":2750.630000140518},{\"x\":634,\"y\":246,\"t\":2777.089999988675},{\"x\":506,\"y\":426,\"t\":2803.5300001502037},{\"x\":674,\"y\":313,\"t\":2828.5000000614673},{\"x\":570,\"y\":646,\"t\":2856.5800001379102},{\"x\":536,\"y\":696,\"t\":2881.800000090152},{\"x\":636,\"y\":740,\"t\":2916.250000009313},{\"x\":315,\"y\":376,\"t\":2941.3499999791384},{\"x\":462,\"y\":488,\"t\":2967.790000140667},{\"x\":462,\"y\":488,\"t\":2996.694999979809},{\"x\":323,\"y\":504,\"t\":3027.6200000662357},{\"x\":465,\"y\":311,\"t\":3059.940000064671},{\"x\":329,\"y\":483,\"t\":3093.415000010282},{\"x\":225,\"y\":473,\"t\":3121.5200000442564},{\"x\":332,\"y\":573,\"t\":3147.1800000872463},{\"x\":700,\"y\":399,\"t\":3173.010000027716},{\"x\":716,\"y\":346,\"t\":3197.5199999287724},{\"x\":961,\"y\":618,\"t\":3224.0500000771135},{\"x\":916,\"y\":187,\"t\":3250.114999944344},{\"x\":890,\"y\":131,\"t\":3287.0799999218434},{\"x\":973,\"y\":232,\"t\":3313.499999931082},{\"x\":853,\"y\":37,\"t\":3339.3550000619143},{\"x\":1010,\"y\":241,\"t\":3364.0850000083447},{\"x\":770,\"y\":-13,\"t\":3390.025000087917},{\"x\":485,\"y\":275,\"t\":3414.935000007972},{\"x\":527,\"y\":223,\"t\":3441.3350000977516},{\"x\":585,\"y\":81,\"t\":3467.115000123158},{\"x\":758,\"y\":143,\"t\":3492.2450000885874},{\"x\":469,\"y\":312,\"t\":3518.6300000641495},{\"x\":613,\"y\":522,\"t\":3545.8050000015646},{\"x\":499,\"y\":325,\"t\":3572.9199999477714},{\"x\":561,\"y\":431,\"t\":3598.2800000347197},{\"x\":-78,\"y\":875,\"t\":3635.8700001146644},{\"x\":268,\"y\":494,\"t\":3660.8599999453872},{\"x\":333,\"y\":264,\"t\":3687.0750000234693},{\"x\":694,\"y\":340,\"t\":3713.4700000751764},{\"x\":503,\"y\":334,\"t\":3741.249999962747},{\"x\":827,\"y\":548,\"t\":3767.780000111088},{\"x\":537,\"y\":621,\"t\":3793.9200000837445},{\"x\":591,\"y\":551,\"t\":3819.7600001003593},{\"x\":353,\"y\":339,\"t\":3847.319999942556},{\"x\":472,\"y\":389,\"t\":3873.6499999649823},{\"x\":608,\"y\":419,\"t\":3900.080000050366},{\"x\":612,\"y\":254,\"t\":3926.295000128448},{\"x\":437,\"y\":142,\"t\":3952.449999982491},{\"x\":521,\"y\":136,\"t\":4009.21000004746},{\"x\":450,\"y\":158,\"t\":4034.544999944046},{\"x\":546,\"y\":115,\"t\":4059.0300001204014},{\"x\":513,\"y\":158,\"t\":4084.6299999393523},{\"x\":530,\"y\":289,\"t\":4110.45500007458},{\"x\":523,\"y\":457,\"t\":4136.3450000062585},{\"x\":629,\"y\":319,\"t\":4160.975000122562},{\"x\":578,\"y\":483,\"t\":4186.35500012897},{\"x\":525,\"y\":293,\"t\":4212.5750000122935},{\"x\":324,\"y\":174,\"t\":4239.014999940991},{\"x\":317,\"y\":190,\"t\":4265.0600001215935},{\"x\":447,\"y\":135,\"t\":4289.65499997139},{\"x\":340,\"y\":181,\"t\":4316.20500003919}]",
		"x0": 10,
		"y0": 10,
		"x4": 851,
		"y4": 425,
		"w": 819,
		"h": 409,
		"trialID": "test29",
		"list": "l1",
		"trial_type": "vwp-webgazer",
		"cond": "no_contrast",
		"target_pic": "feather_small.jpg",
		"target_contrast": "pear_big.jpg",
		"big_filler": "basket_big.jpg",
		"small_filler": "washer_small.jpg",
		"phase": "test-vwp",
		"trial_index": 13,
		"time_elapsed": 93100,
		"internal_node_id": "0.0-2.0-0.11"
	},
	{
		"picTL": "pictures/palette_small.jpg",
		"picTR": "pictures/dog_big.jpg",
		"picBL": "pictures/dinosaur_big.jpg",
		"picBR": "pictures/dog_small.jpg",
		"rt": 5013.885000022128,
		"audio_stim": "sounds/dog_big.wav",
		"clicked_on": "TR",
		"gaze_data": "[{\"x\":744,\"y\":295,\"t\":105057.77999991551},{\"x\":702,\"y\":260,\"t\":30.845000175759196},{\"x\":533,\"y\":304,\"t\":56.74000014550984},{\"x\":437,\"y\":124,\"t\":83.15500011667609},{\"x\":462,\"y\":356,\"t\":110.03000009804964},{\"x\":410,\"y\":158,\"t\":135.83000004291534},{\"x\":593,\"y\":431,\"t\":161.5999999921769},{\"x\":342,\"y\":363,\"t\":187.8750000614673},{\"x\":408,\"y\":151,\"t\":214.43000016734004},{\"x\":566,\"y\":162,\"t\":239.93000015616417},{\"x\":472,\"y\":108,\"t\":265.98999998532236},{\"x\":341,\"y\":122,\"t\":292.9800001438707},{\"x\":442,\"y\":-46,\"t\":320.1450000051409},{\"x\":565,\"y\":180,\"t\":347.9700000025332},{\"x\":656,\"y\":119,\"t\":375.2250000834465},{\"x\":455,\"y\":325,\"t\":452.87500019185245},{\"x\":673,\"y\":175,\"t\":487.57500015199184},{\"x\":654,\"y\":267,\"t\":515.3400001581758},{\"x\":823,\"y\":502,\"t\":543.0850000120699},{\"x\":881,\"y\":502,\"t\":568.9250000286847},{\"x\":694,\"y\":577,\"t\":597.1400002017617},{\"x\":763,\"y\":562,\"t\":625.1650000922382},{\"x\":498,\"y\":289,\"t\":651.5800000634044},{\"x\":612,\"y\":350,\"t\":679.295000154525},{\"x\":612,\"y\":350,\"t\":706.3900001812726},{\"x\":771,\"y\":113,\"t\":732.6400000602007},{\"x\":768,\"y\":223,\"t\":759.4800000078976},{\"x\":766,\"y\":375,\"t\":786.7200002074242},{\"x\":748,\"y\":314,\"t\":812.9550002049655},{\"x\":781,\"y\":548,\"t\":856.7950001452118},{\"x\":814,\"y\":348,\"t\":884.5699999947101},{\"x\":981,\"y\":350,\"t\":911.4550000522286},{\"x\":934,\"y\":576,\"t\":949.6600001584738},{\"x\":753,\"y\":324,\"t\":977.8650000225753},{\"x\":867,\"y\":365,\"t\":1003.6150000523776},{\"x\":867,\"y\":365,\"t\":1029.130000155419},{\"x\":829,\"y\":332,\"t\":1055.3400001954287},{\"x\":887,\"y\":443,\"t\":1080.7500001974404},{\"x\":720,\"y\":294,\"t\":1106.815000064671},{\"x\":759,\"y\":377,\"t\":1131.715000141412},{\"x\":748,\"y\":398,\"t\":1157.1300001814961},{\"x\":764,\"y\":153,\"t\":1182.970000198111},{\"x\":828,\"y\":166,\"t\":1209.8900000564754},{\"x\":647,\"y\":730,\"t\":1271.8600002117455},{\"x\":-42,\"y\":197,\"t\":1298.4000002034009},{\"x\":344,\"y\":373,\"t\":1323.9700000267476},{\"x\":918,\"y\":61,\"t\":1349.8600001912564},{\"x\":896,\"y\":65,\"t\":1376.4700000174344},{\"x\":882,\"y\":221,\"t\":1401.3850002083927},{\"x\":1003,\"y\":252,\"t\":1427.8350002132356},{\"x\":937,\"y\":644,\"t\":1453.4350000321865},{\"x\":590,\"y\":512,\"t\":1480.5550000164658},{\"x\":800,\"y\":654,\"t\":1505.430000135675},{\"x\":934,\"y\":686,\"t\":1531.1250002123415},{\"x\":687,\"y\":533,\"t\":1556.495000142604},{\"x\":718,\"y\":535,\"t\":1582.4000001884997},{\"x\":816,\"y\":752,\"t\":1608.540000161156},{\"x\":1094,\"y\":694,\"t\":1644.35000019148},{\"x\":1287,\"y\":477,\"t\":1670.1500001363456},{\"x\":897,\"y\":395,\"t\":1695.7400001119822},{\"x\":1127,\"y\":222,\"t\":1723.4900000039488},{\"x\":1062,\"y\":216,\"t\":1749.6350000146776},{\"x\":1017,\"y\":68,\"t\":1776.0199999902397},{\"x\":1029,\"y\":112,\"t\":1800.9500000625849},{\"x\":1035,\"y\":297,\"t\":1828.7800000980496},{\"x\":1080,\"y\":188,\"t\":1854.9999999813735},{\"x\":1163,\"y\":226,\"t\":1883.0800000578165},{\"x\":1245,\"y\":149,\"t\":1913.6150002013892},{\"x\":1077,\"y\":-27,\"t\":1938.3249999955297},{\"x\":1266,\"y\":7,\"t\":1964.5950000267476},{\"x\":742,\"y\":-17,\"t\":1991.1900002043694},{\"x\":593,\"y\":159,\"t\":2025.5350000225008},{\"x\":693,\"y\":114,\"t\":2051.3999999966472},{\"x\":701,\"y\":223,\"t\":2077.2950001992285},{\"x\":750,\"y\":188,\"t\":2102.2100001573563},{\"x\":887,\"y\":328,\"t\":2127.970000030473},{\"x\":659,\"y\":297,\"t\":2153.425000142306},{\"x\":946,\"y\":262,\"t\":2178.905000211671},{\"x\":625,\"y\":-6,\"t\":2204.0450000204146},{\"x\":973,\"y\":49,\"t\":2229.7350000590086},{\"x\":1203,\"y\":83,\"t\":2256.0900000389665},{\"x\":1240,\"y\":424,\"t\":2281.870000064373},{\"x\":1036,\"y\":420,\"t\":2316.340000135824},{\"x\":980,\"y\":302,\"t\":2343.485000077635},{\"x\":1205,\"y\":365,\"t\":2368.3900001924485},{\"x\":1205,\"y\":365,\"t\":2402.7150000911206},{\"x\":1061,\"y\":344,\"t\":2428.1650001648813},{\"x\":1201,\"y\":227,\"t\":2455.3100001066923},{\"x\":785,\"y\":432,\"t\":2482.7050000894815},{\"x\":440,\"y\":653,\"t\":2508.475000038743},{\"x\":377,\"y\":646,\"t\":2532.8800000716},{\"x\":508,\"y\":644,\"t\":2558.3650001790375},{\"x\":497,\"y\":438,\"t\":2583.725000033155},{\"x\":785,\"y\":520,\"t\":2608.7800001259893},{\"x\":751,\"y\":460,\"t\":2633.190000196919},{\"x\":591,\"y\":454,\"t\":2658.720000181347},{\"x\":552,\"y\":493,\"t\":2683.73000016436},{\"x\":536,\"y\":534,\"t\":2709.789999993518},{\"x\":535,\"y\":640,\"t\":2734.165000030771},{\"x\":765,\"y\":848,\"t\":2769.455000059679},{\"x\":578,\"y\":778,\"t\":2794.5550000295043},{\"x\":601,\"y\":860,\"t\":2819.645000156015},{\"x\":531,\"y\":741,\"t\":2846.0350001696497},{\"x\":531,\"y\":741,\"t\":2870.68000016734},{\"x\":417,\"y\":644,\"t\":2897.655000211671},{\"x\":451,\"y\":758,\"t\":2923.400000203401},{\"x\":418,\"y\":817,\"t\":2949.0550002083182},{\"x\":395,\"y\":760,\"t\":2974.2000000551343},{\"x\":264,\"y\":615,\"t\":2999.1000001318753},{\"x\":405,\"y\":644,\"t\":3025.2750001382083},{\"x\":435,\"y\":565,\"t\":3050.9200000669807},{\"x\":372,\"y\":620,\"t\":3076.104999985546},{\"x\":538,\"y\":663,\"t\":3101.3450000900775},{\"x\":820,\"y\":698,\"t\":3146.6700001619756},{\"x\":1256,\"y\":338,\"t\":3177.21000011079},{\"x\":1261,\"y\":324,\"t\":3201.9500001333654},{\"x\":1135,\"y\":75,\"t\":3227.985000004992},{\"x\":1075,\"y\":295,\"t\":3253.495000069961},{\"x\":1238,\"y\":240,\"t\":3278.7800000514835},{\"x\":1226,\"y\":201,\"t\":3304.6500000637025},{\"x\":1078,\"y\":258,\"t\":3330.1750000100583},{\"x\":1196,\"y\":287,\"t\":3355.6700001936406},{\"x\":1067,\"y\":361,\"t\":3381.705000065267},{\"x\":1159,\"y\":113,\"t\":3406.7600001581013},{\"x\":1193,\"y\":164,\"t\":3431.5750000532717},{\"x\":1151,\"y\":-49,\"t\":3457.1050000377},{\"x\":1247,\"y\":206,\"t\":3482.0950001012534},{\"x\":1277,\"y\":84,\"t\":3517.210000194609},{\"x\":1237,\"y\":69,\"t\":3543.485000031069},{\"x\":1237,\"y\":69,\"t\":3567.9250000976026},{\"x\":1298,\"y\":256,\"t\":3594.359999988228},{\"x\":1219,\"y\":243,\"t\":3632.6650001574308},{\"x\":1046,\"y\":125,\"t\":3657.3900000657886},{\"x\":1161,\"y\":217,\"t\":3683.1050000619143},{\"x\":1178,\"y\":324,\"t\":3708.765000104904},{\"x\":1178,\"y\":324,\"t\":3732.9800000879914},{\"x\":1284,\"y\":181,\"t\":3758.1600002013147},{\"x\":1273,\"y\":369,\"t\":3783.565000165254},{\"x\":1176,\"y\":228,\"t\":3808.695000130683},{\"x\":1161,\"y\":345,\"t\":3833.1400000024587},{\"x\":1323,\"y\":245,\"t\":3858.455000212416},{\"x\":1450,\"y\":144,\"t\":3895.295000169426},{\"x\":1288,\"y\":19,\"t\":3921.3200001977384},{\"x\":1331,\"y\":66,\"t\":3946.1350000929087},{\"x\":1333,\"y\":50,\"t\":3971.4050001930445},{\"x\":1123,\"y\":167,\"t\":3997.6100001949817},{\"x\":1242,\"y\":197,\"t\":4023.0000000447035},{\"x\":1445,\"y\":530,\"t\":4048.7850001081824},{\"x\":1511,\"y\":544,\"t\":4074.745000107214},{\"x\":1511,\"y\":544,\"t\":4099.069999996573},{\"x\":1502,\"y\":601,\"t\":4123.9000000059605},{\"x\":1419,\"y\":466,\"t\":4149.9199999962},{\"x\":1436,\"y\":341,\"t\":4175.510000204667},{\"x\":1445,\"y\":469,\"t\":4200.665000127628},{\"x\":954,\"y\":274,\"t\":4227.9350000899285},{\"x\":1193,\"y\":252,\"t\":4271.780000068247},{\"x\":1215,\"y\":222,\"t\":4299.580000108108},{\"x\":1260,\"y\":234,\"t\":4325.070000020787},{\"x\":1169,\"y\":-55,\"t\":4352.584999985993},{\"x\":993,\"y\":277,\"t\":4379.915000172332},{\"x\":933,\"y\":96,\"t\":4406.325000105426},{\"x\":987,\"y\":307,\"t\":4431.990000186488},{\"x\":1266,\"y\":169,\"t\":4458.660000003874},{\"x\":1183,\"y\":266,\"t\":4484.7699999809265},{\"x\":1390,\"y\":162,\"t\":4511.555000208318},{\"x\":1158,\"y\":349,\"t\":4536.880000028759},{\"x\":1304,\"y\":51,\"t\":4562.755000079051},{\"x\":1202,\"y\":256,\"t\":4589.005000190809},{\"x\":1258,\"y\":-56,\"t\":4615.015000104904},{\"x\":1173,\"y\":224,\"t\":4655.36000020802},{\"x\":1168,\"y\":306,\"t\":4681.055000051856},{\"x\":1170,\"y\":315,\"t\":4705.810000188649},{\"x\":986,\"y\":240,\"t\":4731.6850000061095},{\"x\":1208,\"y\":213,\"t\":4757.985000032932},{\"x\":1101,\"y\":301,\"t\":4783.930000150576},{\"x\":1184,\"y\":218,\"t\":4810.860000085086},{\"x\":1136,\"y\":262,\"t\":4836.53000020422},{\"x\":1189,\"y\":225,\"t\":4861.755000194535},{\"x\":1202,\"y\":243,\"t\":4888.140000170097},{\"x\":1140,\"y\":109,\"t\":4913.93500007689},{\"x\":1215,\"y\":278,\"t\":4938.844999996945},{\"x\":1271,\"y\":294,\"t\":4964.510000078008},{\"x\":1134,\"y\":22,\"t\":4990.5600000638515}]",
		"x0": 10,
		"y0": 10,
		"x4": 851,
		"y4": 425,
		"w": 819,
		"h": 409,
		"trialID": "test11",
		"list": "l1",
		"trial_type": "vwp-webgazer",
		"cond": "contrast",
		"target_pic": "dog_big.jpg",
		"target_contrast": "dog_small.jpg",
		"big_filler": "dinosaur_big.jpg",
		"small_filler": "palette_small.jpg",
		"phase": "test-vwp",
		"trial_index": 14,
		"time_elapsed": 98141,
		"internal_node_id": "0.0-2.0-0.12"
	},
	{
		"picTL": "pictures/cake_small.jpg",
		"picTR": "pictures/windmill_big.jpg",
		"picBL": "pictures/lobster_big.jpg",
		"picBR": "pictures/lobster_small.jpg",
		"rt": 4971.034999936819,
		"audio_stim": "sounds/lobster_small.wav",
		"clicked_on": "BR",
